Packet number,Gyroscope X (deg/s),Gyroscope Y (deg/s),Gyroscope Z (deg/s),Accelerometer X (G),Accelerometer Y (G),Accelerometer Z (G),Magnetometer X (G),Magnetometer Y (G),Magnetometer Z (G)
1,0,0,0,0.48,0.12,1.02,,,
2,0.06,0.08,0.2,-0.14,0.03,1.02,,,
3,-0.08,0.12,0.07,-0.14,0.03,1.02,,,
4,-0.05,0.03,0.03,-0.14,0.03,1.02,,,
5,0.12,-0.15,-0.2,-0.14,0.03,1.02,,,
6,-0.11,-0.2,-0.08,-0.13,0.03,1.03,,,
7,-0.02,0.13,0.02,-0.14,0.03,1.02,,,
8,-0.03,0.62,-0.04,-0.14,0.03,1.02,,,
9,-0.21,1.09,0.09,-0.13,0.04,1.01,,,
10,-0.03,0.55,-0.05,-0.14,0.03,1.02,,,
11,0.05,0.44,-0.06,-0.14,0.04,1.02,,,
12,0.27,-0.1,0.26,-0.13,0.03,1.02,,,
13,-0.12,-0.2,0.17,-0.14,0.03,1.02,,,
14,-0.07,-0.1,0.15,-0.14,0.04,1.02,,,
15,-0.15,0.38,-0.07,-0.13,0.03,1.02,,,
16,0.11,0.43,0.2,-0.14,0.03,1.02,,,
17,0.1,0.28,-0.21,-0.14,0.03,1.02,,,
18,0.01,0.09,-0.23,-0.13,0.04,1.02,,,
19,0.05,0.12,-0.04,-0.14,0.03,1.02,,,
20,0.05,0.06,-0.15,-0.13,0.04,1.03,,,
21,0.11,0.04,-0.1,-0.14,0.03,1.01,,,
22,0.19,-0.26,-0.04,-0.13,0.04,1.02,,,
23,0.04,-0.26,0.29,-0.14,0.03,1.02,,,
24,0.07,-0.39,-0.19,-0.13,0.03,1.02,,,
25,0.16,-0.39,-0.09,-0.13,0.03,1.02,,,
26,0.2,0.02,0.07,-0.13,0.03,1.02,,,
27,0.16,-0.07,0.04,-0.14,0.04,1.01,,,
28,-0.05,-0.48,0.21,-0.14,0.03,1.02,,,
29,-0.18,-0.42,0.15,-0.14,0.03,1.01,,,
30,-0.07,-0.4,0.05,-0.13,0.03,1.02,,,
31,-0.21,0.15,0.2,-0.14,0.03,1.02,,,
32,-0.26,0.08,-0.12,-0.13,0.03,1.02,,,
33,0.03,0.34,-0.01,-0.13,0.03,1.02,,,
34,0.07,0.54,0.03,-0.13,0.04,1.02,,,
35,0.24,0.44,0.01,-0.14,0.03,1.03,,,
36,0,0.45,-0.04,-0.14,0.03,1.02,,,
37,-0.07,0.8,-0.19,-0.14,0.03,1.02,,,
38,-0.43,1.48,-0.07,-0.14,0.03,1.02,,,
39,-0.13,1.32,-0.09,-0.14,0.03,1.02,,,
40,-0.28,1.12,-0.03,-0.14,0.04,1.02,,,
41,-0.27,0.72,0.12,-0.14,0.04,1.03,,,
42,0.05,0.33,0.23,-0.14,0.04,1.02,,,
43,0.01,0.2,0.18,-0.14,0.03,1.03,,,
44,-0.02,-0.68,0.17,-0.14,0.03,1.02,,,
45,0.02,-0.47,0.11,-0.14,0.03,1.02,,,
46,-0.12,-0.82,0.26,-0.14,0.03,1.02,,,
47,0.23,-0.99,0.21,-0.14,0.03,1.02,,,
48,0.24,-0.97,0.16,-0.14,0.04,1.02,,,
49,0.4,-0.7,0.22,-0.14,0.03,1.02,,,
50,0.05,-0.75,-0.03,-0.14,0.03,1.03,,,
51,0.19,-0.26,0.29,-0.14,0.03,1.02,,,
52,-0.03,-0.02,-0.08,-0.13,0.03,1.02,,,
53,-0.12,0.66,0.07,-0.13,0.04,1.02,,,
54,-0.51,1.07,-0.12,-0.14,0.03,1.02,,,
55,-0.34,0.83,0.18,-0.14,0.03,1.02,,,
56,-0.22,0.94,-0.18,-0.14,0.04,1.02,,,
57,-0.25,0.79,0.04,-0.14,0.03,1.02,,,
58,-0.08,0.18,-0.11,-0.14,0.03,1.03,,,
59,0.07,0.18,0.01,-0.14,0.03,1.02,,,
60,0.17,0.06,-0.1,-0.13,0.03,1.02,,,
61,0.07,-0.13,0.08,-0.14,0.03,1.02,,,
62,0.07,-0.39,-0.1,-0.14,0.03,1.02,,,
63,0.04,-0.66,0.08,-0.14,0.03,1.02,,,
64,0.05,-0.81,-0.06,-0.14,0.04,1.02,,,
65,0.01,-0.83,-0.06,-0.14,0.03,1.02,,,
66,-0.02,-0.51,0,-0.14,0.03,1.02,,,
67,-0.07,0.06,-0.18,-0.14,0.03,1.02,,,
68,-0.34,0.26,-0.19,-0.14,0.03,1.02,,,
69,-0.09,0.42,-0.13,-0.14,0.04,1.03,,,
70,0.11,0.42,-0.12,-0.13,0.03,1.02,,,
71,0.04,0.19,-0.13,-0.13,0.04,1.02,,,
72,-0.04,0.48,-0.09,-0.14,0.03,1.02,,,
73,0.15,0.27,-0.25,-0.14,0.03,1.02,,,
74,-0.05,-0.08,0.16,-0.14,0.04,1.02,,,
75,0.28,-0.42,0.03,-0.14,0.04,1.02,,,
76,0.25,-0.3,-0.09,-0.14,0.03,1.02,,,
77,-0.16,-0.04,0.2,-0.14,0.03,1.02,,,
78,0,0.03,0.08,-0.14,0.04,1.03,,,
79,0.01,0,-0.15,-0.14,0.03,1.02,,,
80,-0.07,0.01,0.02,-0.14,0.03,1.02,,,
81,0.04,-0.25,0.18,-0.14,0.04,1.03,,,
82,-0.12,-0.36,-0.29,-0.14,0.03,1.02,,,
83,-0.19,-0.15,0.04,-0.14,0.04,1.02,,,
84,-0.12,0.11,0.13,-0.14,0.04,1.02,,,
85,0.15,0.34,0.23,-0.14,0.04,1.02,,,
86,-0.03,0.19,0.09,-0.14,0.04,1.02,,,
87,0.01,0.59,-0.27,-0.14,0.04,1.02,,,
88,-0.16,0.29,0.33,-0.14,0.03,1.02,,,
89,0,-0.04,-0.06,-0.14,0.04,1.02,,,
90,0.15,-0.13,-0.16,-0.14,0.03,1.03,,,
91,0.2,0.15,0.26,-0.13,0.03,1.02,,,
92,-0.15,0.25,0.1,-0.13,0.03,1.02,,,
93,0.17,-0.13,-0.16,-0.14,0.03,1.02,,,
94,-0.01,-0.19,0.12,-0.14,0.03,1.02,,,
95,-0.14,-0.07,0.15,-0.14,0.03,1.02,,,
96,0.02,-0.25,-0.25,-0.13,0.04,1.02,,,
97,-0.1,0.17,-0.02,-0.14,0.03,1.02,,,
98,0.3,0.06,0.13,-0.13,0.04,1.03,,,
99,-0.02,0.47,-0.01,-0.13,0.03,1.02,,,
100,-0.1,0.15,-0.09,-0.14,0.03,1.02,,,
101,-0.12,0.32,-0.03,-0.14,0.04,1.02,,,
102,-0.25,0.14,0.23,-0.13,0.03,1.02,,,
103,-0.04,-0.29,0.26,-0.14,0.03,1.02,,,
104,0.11,-0.21,0,-0.14,0.03,1.02,,,
105,-0.02,0.4,0.12,-0.14,0.03,1.03,,,
106,-0.27,0.06,-0.06,-0.14,0.03,1.02,,,
107,-0.15,0.21,-0.12,-0.14,0.04,1.02,,,
108,-0.13,0.38,0.08,-0.14,0.03,1.02,,,
109,0.19,-0.08,0.02,-0.14,0.03,1.02,,,
110,0.29,0.28,0.07,-0.14,0.03,1.02,,,
111,-0.04,0.36,-0.06,-0.13,0.03,1.02,,,
112,0.1,0.21,-0.07,-0.14,0.03,1.02,,,
113,0.15,-0.07,-0.06,-0.14,0.03,1.02,,,
114,0.03,-0.25,0.13,-0.13,0.03,1.02,,,
115,0.03,-0.25,-0.03,-0.14,0.03,1.02,,,
116,0.03,0.07,0.09,-0.14,0.04,1.02,,,
117,0.03,0.35,0.15,-0.14,0.03,1.02,,,
118,0.14,0.12,0.14,-0.14,0.04,1.02,,,
119,0.11,0.03,0.13,-0.14,0.04,1.03,,,
120,0.04,0.04,0.12,-0.13,0.04,1.02,,,
121,0.11,-0.3,0.13,-0.13,0.03,1.02,,,
122,0.16,-0.03,-0.15,-0.14,0.03,1.02,,,
123,-0.1,0.23,0.06,-0.14,0.03,1.02,,,
124,-0.22,-0.29,0.29,-0.13,0.04,1.02,,,
125,0.07,0.04,-0.11,-0.14,0.04,1.02,,,
126,0.19,0.27,-0.28,-0.14,0.04,1.02,,,
127,-0.19,0.19,0.22,-0.14,0.03,1.02,,,
128,-0.07,0.4,-0.06,-0.13,0.03,1.02,,,
129,0.03,0.19,-0.03,-0.14,0.03,1.02,,,
130,0.27,-0.11,0.24,-0.14,0.04,1.02,,,
131,-0.13,0.24,0.13,-0.14,0.03,1.02,,,
132,-0.31,0.32,-0.12,-0.14,0.04,1.02,,,
133,0.07,0.45,0.1,-0.14,0.03,1.02,,,
134,-0.09,0.23,0.26,-0.14,0.04,1.02,,,
135,-0.04,0.06,0.13,-0.14,0.03,1.01,,,
136,0.23,-0.32,-0.15,-0.14,0.04,1.02,,,
137,0.04,-0.4,-0.09,-0.14,0.03,1.03,,,
138,0.17,-0.07,-0.09,-0.13,0.04,1.02,,,
139,0.09,-0.03,0.13,-0.14,0.04,1.02,,,
140,-0.08,0.22,0.14,-0.13,0.03,1.02,,,
141,-0.07,-0.1,0.04,-0.14,0.04,1.02,,,
142,-0.05,-0.04,-0.11,-0.14,0.03,1.02,,,
143,-0.21,0,0.19,-0.13,0.04,1.02,,,
144,0.08,0.35,-0.09,-0.14,0.03,1.02,,,
145,-0.02,-0.16,-0.21,-0.14,0.03,1.02,,,
146,-0.17,0.64,0.01,-0.13,0.04,1.02,,,
147,-0.02,0.77,0.06,-0.13,0.04,1.02,,,
148,0.03,0.41,0,-0.14,0.04,1.02,,,
149,0.04,0.05,-0.06,-0.14,0.04,1.02,,,
150,0.1,-0.05,0.28,-0.14,0.04,1.02,,,
151,0.07,-0.36,0.01,-0.14,0.03,1.03,,,
152,-0.1,-0.03,0.04,-0.14,0.03,1.02,,,
153,0.18,-0.17,0.08,-0.14,0.03,1.02,,,
154,-0.01,0.12,-0.09,-0.14,0.04,1.02,,,
155,-0.37,0.29,0.13,-0.13,0.04,1.02,,,
156,-0.47,0.33,0.17,-0.14,0.03,1.02,,,
157,0.11,-0.04,-0.28,-0.14,0.03,1.02,,,
158,0.14,0.1,-0.06,-0.13,0.03,1.02,,,
159,0.03,-0.47,0.03,-0.14,0.03,1.02,,,
160,0.2,-0.15,0.2,-0.14,0.03,1.02,,,
161,-0.01,-0.32,-0.03,-0.14,0.04,1.01,,,
162,0.17,-0.63,0.03,-0.14,0.03,1.02,,,
163,-0.02,-0.18,0.17,-0.13,0.03,1.03,,,
164,0.27,-0.1,-0.01,-0.13,0.04,1.02,,,
165,0.32,0.22,-0.08,-0.13,0.03,1.02,,,
166,-0.25,0.43,-0.18,-0.13,0.03,1.02,,,
167,-0.25,0.98,0.29,-0.14,0.03,1.01,,,
168,-0.28,0.61,0.03,-0.14,0.03,1.02,,,
169,-0.03,0.14,0.07,-0.14,0.03,1.03,,,
170,-0.05,0.1,0.17,-0.13,0.03,1.02,,,
171,0.21,0.12,0.04,-0.13,0.03,1.02,,,
172,-0.02,0.45,-0.24,-0.14,0.03,1.02,,,
173,-0.21,0,-0.11,-0.14,0.04,1.02,,,
174,0.12,-0.07,-0.28,-0.14,0.03,1.02,,,
175,-0.15,0.06,0.29,-0.14,0.03,1.02,,,
176,0.29,-0.2,-0.02,-0.13,0.03,1.02,,,
177,0.09,-0.16,0.07,-0.14,0.03,1.02,,,
178,-0.12,0,-0.2,-0.14,0.04,1.02,,,
179,0.01,-0.01,0.06,-0.13,0.03,1.03,,,
180,-0.06,0,0.01,-0.13,0.03,1.02,,,
181,-0.02,0.01,-0.08,-0.14,0.03,1.02,,,
182,0.12,0.18,0.15,-0.14,0.03,1.02,,,
183,-0.09,-0.33,0.03,-0.14,0.04,1.02,,,
184,0.11,0.23,-0.03,-0.13,0.03,1.02,,,
185,0.01,0.34,0.08,-0.13,0.04,1.02,,,
186,0.04,0.45,0.08,-0.14,0.03,1.03,,,
187,-0.05,0.38,-0.06,-0.14,0.04,1.02,,,
188,-0.14,-0.11,-0.08,-0.13,0.03,1.02,,,
189,-0.19,0,0.15,-0.13,0.03,1.02,,,
190,-0.11,0.03,0.08,-0.14,0.04,1.02,,,
191,-0.09,0.09,-0.03,-0.14,0.03,1.02,,,
192,-0.16,0.03,0.07,-0.13,0.04,1.02,,,
193,0.02,-0.07,-0.01,-0.13,0.04,1.02,,,
194,0.11,-0.11,0.2,-0.13,0.04,1.02,,,
195,0.3,-0.36,-0.02,-0.14,0.03,1.02,,,
196,0.17,-0.24,0.18,-0.13,0.04,1.02,,,
197,0.3,-0.04,0.1,-0.13,0.03,1.02,,,
198,-0.26,-0.11,0.04,-0.14,0.03,1.02,,,
199,-0.31,-0.03,0.17,-0.13,0.03,1.01,,,
200,0.07,0.22,0.2,-0.14,0.03,1.02,,,
201,0,0.22,0.14,-0.14,0.03,1.02,,,
202,0.22,0.41,-0.12,-0.13,0.04,1.02,,,
203,0.17,0.62,-0.16,-0.13,0.03,1.02,,,
204,-0.03,0.64,-0.15,-0.14,0.03,1.02,,,
205,0.24,0.41,0.06,-0.13,0.03,1.03,,,
206,0.06,0.16,0.01,-0.14,0.03,1.02,,,
207,-0.2,0.08,-0.09,-0.13,0.03,1.02,,,
208,-0.03,-0.16,-0.15,-0.14,0.04,1.02,,,
209,0,-0.57,0.17,-0.14,0.04,1.01,,,
210,0.13,-0.58,0.05,-0.13,0.03,1.02,,,
211,0.24,-0.28,-0.02,-0.14,0.03,1.02,,,
212,-0.02,0.02,0.22,-0.14,0.03,1.02,,,
213,0,0.04,0.04,-0.14,0.03,1.02,,,
214,0.17,0.21,-0.16,-0.13,0.04,1.03,,,
215,0.2,0.18,-0.03,-0.14,0.03,1.03,,,
216,0.07,0,-0.05,-0.14,0.03,1.02,,,
217,-0.14,0.09,0.03,-0.13,0.03,1.02,,,
218,0.03,0.15,0.04,-0.13,0.03,1.02,,,
219,-0.03,0.23,0.09,-0.14,0.03,1.02,,,
220,-0.19,0.19,0.28,-0.14,0.03,1.01,,,
221,-0.02,0.09,0.01,-0.14,0.03,1.02,,,
222,-0.1,0.47,-0.19,-0.13,0.03,1.02,,,
223,0.03,0.51,0.29,-0.14,0.04,1.02,,,
224,0.23,0.34,0.1,-0.13,0.04,1.02,,,
225,0.14,0.24,0.17,-0.14,0.04,1.02,,,
226,0.14,0.14,-0.12,-0.14,0.03,1.02,,,
227,-0.15,0.16,0.08,-0.13,0.03,1.02,,,
228,0.03,0.08,-0.12,-0.14,0.03,1.02,,,
229,0.06,-0.13,0.2,-0.14,0.03,1.01,,,
230,0,-0.04,-0.15,-0.14,0.03,1.02,,,
231,-0.17,-0.03,0.03,-0.13,0.04,1.02,,,
232,0.2,-0.2,0.21,-0.14,0.03,1.02,,,
233,0.02,-0.07,0.32,-0.14,0.04,1.02,,,
234,-0.07,0.09,-0.02,-0.13,0.03,1.02,,,
235,0.01,-0.26,-0.06,-0.13,0.03,1.02,,,
236,-0.02,-0.21,-0.08,-0.13,0.03,1.01,,,
237,-0.11,0.03,0.01,-0.13,0.04,1.02,,,
238,-0.02,-0.02,-0.01,-0.14,0.03,1.02,,,
239,0.04,0.4,0.01,-0.14,0.03,1.02,,,
240,0.05,0.06,-0.01,-0.14,0.04,1.02,,,
241,0.03,0.25,0.08,-0.14,0.03,1.02,,,
242,-0.04,0.25,-0.01,-0.14,0.03,1.02,,,
243,0.11,0.1,-0.02,-0.13,0.03,1.02,,,
244,-0.04,-0.1,-0.09,-0.13,0.03,1.02,,,
245,0.05,-0.43,0,-0.13,0.03,1.02,,,
246,-0.05,-0.38,0.26,-0.13,0.03,1.02,,,
247,0.13,-0.46,0.24,-0.13,0.03,1.03,,,
248,0.17,-0.32,0.01,-0.13,0.03,1.01,,,
249,-0.09,0.35,0.11,-0.13,0.03,1.02,,,
250,-0.38,1.65,-0.06,-0.14,0.04,1.02,,,
251,-0.15,1.16,-0.25,-0.14,0.04,1.02,,,
252,0.02,0.25,-0.09,-0.14,0.03,1.02,,,
253,0.25,0.06,0.01,-0.14,0.04,1.02,,,
254,-0.04,-0.06,0.2,-0.14,0.04,1.02,,,
255,0,-0.18,-0.22,-0.14,0.04,1.02,,,
256,0.2,0.39,-0.08,-0.14,0.03,1.02,,,
257,0.12,-0.07,-0.14,-0.13,0.03,1.03,,,
258,0.12,-0.31,-0.03,-0.14,0.03,1.03,,,
259,0.06,-0.55,-0.06,-0.13,0.03,1.02,,,
260,0.01,-0.76,0.09,-0.14,0.03,1.02,,,
261,-0.18,-0.54,0.29,-0.14,0.03,1.02,,,
262,0.01,0.28,0.05,-0.13,0.04,1.02,,,
263,-0.23,1.02,-0.1,-0.13,0.03,1.02,,,
264,-0.09,0.72,0.07,-0.14,0.03,1.02,,,
265,0.05,0.38,0.07,-0.14,0.03,1.02,,,
266,-0.33,0.95,-0.09,-0.13,0.04,1.01,,,
267,-0.38,0.83,-0.06,-0.13,0.03,1.02,,,
268,-0.26,0.88,-0.12,-0.14,0.03,1.02,,,
269,0.33,0.66,0.11,-0.14,0.03,1.02,,,
270,-0.07,0.14,0.04,-0.13,0.04,1.02,,,
271,0.07,-0.12,0.1,-0.14,0.03,1.03,,,
272,0.22,-0.64,0.18,-0.14,0.04,1.03,,,
273,0.24,-0.96,-0.05,-0.14,0.03,1.02,,,
274,-0.05,-0.95,-0.12,-0.14,0.03,1.02,,,
275,0.27,-0.62,-0.06,-0.13,0.04,1.02,,,
276,-0.23,0.09,-0.09,-0.14,0.03,1.02,,,
277,-0.13,0,-0.01,-0.14,0.04,1.02,,,
278,0.04,0.03,-0.09,-0.14,0.03,1.02,,,
279,-0.05,0.55,0,-0.13,0.03,1.02,,,
280,-0.25,0.45,-0.11,-0.13,0.04,1.02,,,
281,-0.07,0.67,-0.03,-0.13,0.03,1.02,,,
282,0.29,0.9,-0.13,-0.14,0.04,1.02,,,
283,-0.08,0.77,-0.41,-0.14,0.04,1.01,,,
284,0.1,0.26,0.03,-0.14,0.03,1.02,,,
285,0.1,-0.08,0.04,-0.14,0.03,1.02,,,
286,-0.21,-0.06,-0.03,-0.13,0.03,1.02,,,
287,0.11,-0.08,0.1,-0.14,0.03,1.02,,,
288,-0.31,-0.2,0.22,-0.14,0.03,1.02,,,
289,0,-0.16,0.04,-0.14,0.04,1.01,,,
290,0.14,-0.35,-0.12,-0.14,0.04,1.02,,,
291,0.14,0.1,0.1,-0.13,0.04,1.02,,,
292,0.18,0.29,-0.09,-0.13,0.04,1.02,,,
293,-0.06,0.51,0.07,-0.14,0.03,1.01,,,
294,0.01,0.29,0.1,-0.14,0.03,1.02,,,
295,0.01,0.22,-0.17,-0.14,0.04,1.02,,,
296,0.04,0.08,0.01,-0.13,0.03,1.02,,,
297,-0.11,0.01,0.14,-0.14,0.03,1.02,,,
298,0.15,-0.05,0.23,-0.13,0.03,1.02,,,
299,-0.11,-0.24,0.19,-0.14,0.03,1.02,,,
300,0,-0.11,0.2,-0.14,0.03,1.01,,,
301,0.09,-0.39,0.34,-0.14,0.03,1.02,,,
302,0.32,-0.3,0.22,-0.13,0.03,1.02,,,
303,-0.04,-0.6,0.23,-0.13,0.03,1.02,,,
304,-0.05,-0.4,0.04,-0.13,0.03,1.02,,,
305,0.19,-0.62,0.25,-0.13,0.03,1.02,,,
306,-0.04,0.56,-0.05,-0.13,0.04,1.02,,,
307,-0.38,0.6,-0.08,-0.13,0.03,1.02,,,
308,-0.16,0.54,0.05,-0.13,0.04,1.02,,,
309,-0.33,0.15,0.35,-0.14,0.03,1.02,,,
310,0.07,-0.53,0.36,-0.14,0.04,1.02,,,
311,-0.06,-0.44,0.36,-0.14,0.03,1.02,,,
312,-0.04,-0.07,0.13,-0.13,0.03,1.02,,,
313,-0.02,0.19,0.13,-0.13,0.03,1.02,,,
314,-0.06,0.44,0.23,-0.13,0.03,1.02,,,
315,-0.02,-0.07,0.04,-0.14,0.03,1.02,,,
316,0.17,-0.29,-0.01,-0.14,0.04,1.02,,,
317,0.3,-0.08,0.27,-0.13,0.03,1.02,,,
318,0.24,0.11,-0.12,-0.13,0.03,1.02,,,
319,-0.16,0.33,-0.15,-0.13,0.04,1.03,,,
320,-0.09,0.51,-0.27,-0.14,0.03,1.02,,,
321,-0.11,0.61,-0.11,-0.13,0.03,1.02,,,
322,-0.02,0.21,0.21,-0.14,0.03,1.02,,,
323,0.26,-0.23,0.09,-0.14,0.03,1.02,,,
324,0.01,-0.29,0.19,-0.13,0.04,1.02,,,
325,0.12,-0.37,0.19,-0.13,0.04,1.03,,,
326,0.27,-0.51,0.49,-0.14,0.03,1.02,,,
327,-0.06,-0.5,0.03,-0.14,0.04,1.02,,,
328,0.28,-0.18,0.06,-0.14,0.03,1.02,,,
329,0.11,-0.58,0.03,-0.13,0.04,1.02,,,
330,0.27,-0.94,0.05,-0.13,0.03,1.02,,,
331,0.17,-0.28,0.07,-0.14,0.04,1.02,,,
332,0.01,0.34,0.09,-0.13,0.03,1.02,,,
333,-0.25,0.78,-0.35,-0.13,0.03,1.02,,,
334,-0.12,2.02,0.17,-0.13,0.03,1.01,,,
335,-0.09,3.71,-0.2,-0.13,0.03,1.02,,,
336,-0.3,3.64,-0.23,-0.14,0.03,1.03,,,
337,-0.49,2.67,-0.08,-0.15,0.03,1.02,,,
338,-0.1,2.55,-0.19,-0.15,0.03,1.02,,,
339,-0.14,1.03,0.06,-0.14,0.03,1.03,,,
340,0.2,0.34,-0.18,-0.14,0.04,1.02,,,
341,-0.21,0.79,-0.09,-0.13,0.03,1.02,,,
342,0.17,1.05,-0.47,-0.13,0.03,1.02,,,
343,0.03,0.48,-0.05,-0.14,0.03,1.02,,,
344,0.36,-0.19,-0.44,-0.14,0.03,1.02,,,
345,0.45,-1.13,0.14,-0.14,0.03,1.02,,,
346,0.27,-1.87,-0.08,-0.14,0.03,1.02,,,
347,0.66,-2.13,-0.15,-0.14,0.03,1.02,,,
348,0.19,-1.47,0.05,-0.14,0.03,1.02,,,
349,0.23,-0.69,-0.18,-0.14,0.04,1.01,,,
350,0.05,-0.2,-0.26,-0.14,0.04,1.02,,,
351,0.46,0.2,0.05,-0.14,0.04,1.02,,,
352,-0.25,0.42,-0.03,-0.14,0.04,1.02,,,
353,-0.31,0.4,-0.04,-0.14,0.03,1.02,,,
354,-0.28,0.11,0.22,-0.14,0.04,1.02,,,
355,-0.22,0.32,0.15,-0.13,0.03,1.02,,,
356,0,0.66,0.07,-0.13,0.03,1.02,,,
357,0.12,0.25,-0.17,-0.14,0.03,1.02,,,
358,-0.01,0.18,-0.04,-0.14,0.03,1.02,,,
359,0.3,0.19,-0.18,-0.13,0.03,1.02,,,
360,-0.04,-0.06,-0.06,-0.14,0.04,1.02,,,
361,0.03,-0.18,0.17,-0.14,0.04,1.01,,,
362,0.12,0.12,0.34,-0.13,0.03,1.02,,,
363,-0.23,0.21,0.17,-0.14,0.04,1.02,,,
364,-0.28,0.25,0.2,-0.14,0.03,1.02,,,
365,-0.25,0.54,0.16,-0.14,0.03,1.02,,,
366,-0.2,0.93,0.07,-0.14,0.04,1.02,,,
367,-0.06,0.61,0.11,-0.14,0.03,1.02,,,
368,0.07,0.72,-0.03,-0.14,0.03,1.02,,,
369,-0.15,0.58,-0.26,-0.14,0.03,1.02,,,
370,0.06,0.82,-0.12,-0.14,0.03,1.03,,,
371,-0.09,0.54,0,-0.14,0.03,1.02,,,
372,0.17,0.12,0.1,-0.14,0.03,1.02,,,
373,-0.22,-0.21,0.07,-0.14,0.04,1.02,,,
374,0.25,-1.14,0,-0.14,0.03,1.02,,,
375,0.3,-1.71,-0.06,-0.14,0.04,1.02,,,
376,0.43,-1.19,-0.25,-0.14,0.03,1.01,,,
377,0.24,-1.16,-0.1,-0.13,0.03,1.02,,,
378,0.25,-1.42,-0.08,-0.14,0.04,1.03,,,
379,-0.03,-2.2,-0.31,-0.14,0.04,1.02,,,
380,0.16,-1.51,0.2,-0.13,0.04,1.02,,,
381,0.24,-0.75,0.26,-0.13,0.04,1.02,,,
382,-0.34,-0.89,0.27,-0.13,0.04,1.02,,,
383,-0.03,-0.06,-0.05,-0.14,0.03,1.02,,,
384,-0.22,1.75,-0.28,-0.13,0.03,1.02,,,
385,-0.47,2.17,-0.13,-0.13,0.04,1.02,,,
386,-0.2,1.13,-0.06,-0.14,0.04,1.02,,,
387,-0.04,1.35,-0.02,-0.14,0.03,1.02,,,
388,-0.38,1.35,-0.12,-0.13,0.04,1.02,,,
389,-0.34,0.96,-0.16,-0.14,0.03,1.02,,,
390,0.21,0.84,0.17,-0.14,0.04,1.02,,,
391,0.17,0.67,0.13,-0.14,0.04,1.02,,,
392,0.04,0.5,0.13,-0.14,0.03,1.02,,,
393,-0.16,0.2,0.1,-0.13,0.03,1.02,,,
394,-0.16,0.63,-0.09,-0.14,0.04,1.02,,,
395,0.01,-0.33,-0.06,-0.14,0.03,1.03,,,
396,0.34,-0.28,-0.17,-0.14,0.03,1.02,,,
397,0.34,-0.06,-0.22,-0.13,0.03,1.03,,,
398,0.42,-1.44,-0.12,-0.14,0.04,1.02,,,
399,0.51,-2.35,0.04,-0.14,0.04,1.02,,,
400,0.23,-1.2,0.08,-0.13,0.03,1.02,,,
401,0,-0.04,0.12,-0.13,0.03,1.02,,,
402,-0.15,0.38,-0.08,-0.13,0.04,1.02,,,
403,-0.15,0.13,0.3,-0.14,0.04,1.02,,,
404,-0.25,0.77,-0.11,-0.14,0.03,1.02,,,
405,-0.02,1.67,0.22,-0.13,0.04,1.02,,,
406,-0.22,2.43,0.01,-0.14,0.03,1.02,,,
407,-0.19,1.45,0,-0.14,0.03,1.02,,,
408,0.06,0.51,-0.04,-0.14,0.04,1.02,,,
409,0.1,-0.14,-0.04,-0.14,0.03,1.02,,,
410,0.17,0.24,-0.06,-0.13,0.03,1.02,,,
411,0.04,0.13,-0.16,-0.14,0.04,1.03,,,
412,0.2,-0.12,-0.18,-0.14,0.03,1.02,,,
413,0.02,-0.77,0.15,-0.14,0.03,1.02,,,
414,0.24,-1.84,0.04,-0.14,0.03,1.03,,,
415,-0.06,-2.06,0.03,-0.13,0.03,1.02,,,
416,0.19,-0.56,-0.01,-0.13,0.03,1.02,,,
417,-0.02,-0.46,0.1,-0.14,0.04,1.02,,,
418,0.09,0.09,-0.25,-0.13,0.03,1.01,,,
419,-0.27,1.29,-0.18,-0.13,0.03,1.02,,,
420,-0.19,1.45,0.06,-0.14,0.04,1.02,,,
421,0.01,1.02,0.13,-0.14,0.04,1.02,,,
422,-0.04,0.92,0.13,-0.14,0.03,1.02,,,
423,-0.01,1.11,0.12,-0.14,0.03,1.02,,,
424,-0.54,0.67,0.07,-0.14,0.04,1.02,,,
425,-0.22,0.45,-0.05,-0.13,0.03,1.02,,,
426,-0.03,-0.49,0.07,-0.14,0.04,1.03,,,
427,0.31,-0.49,-0.09,-0.14,0.04,1.02,,,
428,0.24,-0.46,-0.09,-0.14,0.03,1.02,,,
429,0.34,-1.03,0.01,-0.14,0.03,1.02,,,
430,0.04,-1.27,0.01,-0.14,0.04,1.02,,,
431,0.04,-1.33,0.17,-0.14,0.03,1.01,,,
432,-0.02,0.2,0.05,-0.13,0.04,1.02,,,
433,-0.36,1.07,-0.09,-0.13,0.04,1.02,,,
434,0.05,0.48,0.04,-0.14,0.04,1.02,,,
435,-0.28,0.3,0.13,-0.13,0.04,1.02,,,
436,-0.12,0.06,0.13,-0.13,0.03,1.02,,,
437,-0.09,0.18,-0.12,-0.14,0.03,1.02,,,
438,0.11,0.29,0.03,-0.13,0.03,1.02,,,
439,-0.18,0.58,-0.06,-0.13,0.04,1.02,,,
440,0.08,0.33,-0.01,-0.14,0.03,1.02,,,
441,-0.03,0.41,0,-0.13,0.03,1.03,,,
442,-0.09,1.29,-0.03,-0.13,0.04,1.02,,,
443,-0.31,2.81,-0.16,-0.13,0.03,1.02,,,
444,-0.37,0.95,0.01,-0.14,0.04,1.03,,,
445,0.1,-1.35,0,-0.14,0.03,1.02,,,
446,-0.01,-1.36,0.1,-0.13,0.03,1.02,,,
447,0.14,-0.14,0.2,-0.13,0.03,1.02,,,
448,0.24,-0.4,-0.06,-0.14,0.03,1.02,,,
449,0.24,-0.19,0.3,-0.14,0.03,1.03,,,
450,-0.04,-0.93,0.13,-0.14,0.04,1.02,,,
451,-0.01,-1.34,0.14,-0.14,0.04,1.02,,,
452,0.27,-0.94,0.1,-0.14,0.04,1.02,,,
453,0.11,-0.1,0.17,-0.14,0.04,1.02,,,
454,-0.06,-0.11,-0.1,-0.14,0.03,1.02,,,
455,-0.12,0.37,0.07,-0.14,0.03,1.02,,,
456,0,1.49,-0.12,-0.13,0.03,1.01,,,
457,-0.02,2.24,-0.31,-0.14,0.03,1.02,,,
458,-0.21,1.39,-0.41,-0.14,0.04,1.03,,,
459,0.33,0.64,-0.16,-0.14,0.04,1.02,,,
460,0.17,-0.87,-0.1,-0.14,0.03,1.02,,,
461,0.35,-2.54,-0.12,-0.14,0.04,1.02,,,
462,0.25,-1.91,0.23,-0.13,0.03,1.02,,,
463,0.18,-0.06,-0.06,-0.13,0.04,1.02,,,
464,0.05,0.19,0.06,-0.13,0.03,1.02,,,
465,-0.04,0.32,0.01,-0.13,0.03,1.02,,,
466,0.33,0.55,-0.03,-0.14,0.03,1.02,,,
467,-0.14,0.56,0.1,-0.14,0.04,1.02,,,
468,-0.34,-0.29,0.04,-0.14,0.03,1.02,,,
469,0.14,0.09,0.25,-0.14,0.03,1.02,,,
470,-0.12,0.71,-0.03,-0.13,0.03,1.03,,,
471,0.2,0.35,-0.05,-0.13,0.03,1.02,,,
472,-0.18,0.22,-0.02,-0.13,0.04,1.02,,,
473,0.11,0.71,0,-0.13,0.03,1.02,,,
474,0.01,0.32,0.11,-0.13,0.04,1.02,,,
475,-0.13,-0.43,0.04,-0.14,0.03,1.02,,,
476,-0.05,-0.56,0.26,-0.14,0.04,1.02,,,
477,0.05,-0.19,0.01,-0.13,0.03,1.02,,,
478,-0.12,0.23,0.28,-0.14,0.03,1.02,,,
479,-0.03,0.48,0.3,-0.13,0.03,1.02,,,
480,0.03,0.45,0.04,-0.13,0.04,1.03,,,
481,0.08,-0.05,-0.03,-0.13,0.03,1.02,,,
482,0,-0.33,0.04,-0.14,0.03,1.01,,,
483,0.07,-0.26,0.2,-0.13,0.03,1.02,,,
484,0.09,-0.18,0.04,-0.13,0.03,1.02,,,
485,0.2,0.43,0.27,-0.14,0.03,1.02,,,
486,0.05,0.67,0,-0.14,0.03,1.02,,,
487,0.1,0.43,-0.25,-0.13,0.03,1.02,,,
488,-0.2,-0.11,0.1,-0.14,0.03,1.02,,,
489,-0.01,-0.1,0.16,-0.13,0.04,1.02,,,
490,-0.17,0.42,0.19,-0.13,0.04,1.02,,,
491,0.01,0.87,-0.1,-0.13,0.03,1.02,,,
492,-0.03,0.62,0.12,-0.14,0.04,1.02,,,
493,-0.1,0.65,0.01,-0.14,0.03,1.02,,,
494,-0.01,0.41,0.18,-0.14,0.04,1.02,,,
495,-0.16,0.38,-0.12,-0.14,0.04,1.02,,,
496,0.17,0.51,-0.06,-0.14,0.04,1.02,,,
497,0.07,0,-0.17,-0.14,0.04,1.02,,,
498,-0.09,-0.33,0.18,-0.14,0.03,1.02,,,
499,0.17,-0.49,0.12,-0.14,0.03,1.02,,,
500,-0.32,-0.32,-0.07,-0.14,0.04,1.02,,,
501,0.01,0.32,0.09,-0.14,0.03,1.01,,,
502,0.18,0.16,-0.17,-0.14,0.03,1.02,,,
503,0.19,-0.71,-0.06,-0.14,0.03,1.02,,,
504,0.04,-0.87,0.11,-0.13,0.04,1.02,,,
505,0.24,-0.65,0.15,-0.13,0.03,1.02,,,
506,0.11,-0.56,0.14,-0.13,0.04,1.02,,,
507,0.07,-0.37,0.21,-0.14,0.04,1.02,,,
508,0.29,0.21,0.04,-0.13,0.04,1.02,,,
509,-0.12,0.72,-0.12,-0.13,0.03,1.03,,,
510,-0.04,0.95,-0.04,-0.14,0.04,1.02,,,
511,-0.05,0.96,0.01,-0.14,0.04,1.03,,,
512,0.02,0.49,-0.3,-0.14,0.03,1.03,,,
513,-0.13,0.36,0.07,-0.13,0.03,1.02,,,
514,-0.01,1.22,0.05,-0.13,0.03,1.02,,,
515,-0.23,1.64,0.12,-0.13,0.03,1.03,,,
516,-0.18,1.13,-0.13,-0.14,0.03,1.03,,,
517,0.04,0.11,-0.28,-0.14,0.03,1.02,,,
518,0.44,-0.2,-0.07,-0.14,0.04,1.02,,,
519,0.33,-0.44,-0.32,-0.13,0.04,1.01,,,
520,0.1,-0.49,0.08,-0.13,0.03,1.02,,,
521,0.06,-0.83,0.12,-0.14,0.03,1.03,,,
522,0.12,-0.99,0,-0.14,0.03,1.02,,,
523,-0.09,-0.54,0.01,-0.14,0.03,1.02,,,
524,0.14,-0.17,-0.05,-0.13,0.03,1.02,,,
525,-0.02,-0.21,0.03,-0.14,0.03,1.03,,,
526,0.05,-0.25,0.24,-0.14,0.03,1.03,,,
527,0.08,-0.14,-0.07,-0.13,0.04,1.02,,,
528,-0.08,0.31,0.13,-0.13,0.03,1.01,,,
529,-0.31,0.25,-0.04,-0.14,0.03,1.02,,,
530,-0.12,0.2,0.08,-0.14,0.03,1.02,,,
531,0.14,0.03,-0.06,-0.14,0.03,1.02,,,
532,0.25,0.04,0.19,-0.14,0.03,1.02,,,
533,-0.02,-0.13,-0.21,-0.14,0.03,1.02,,,
534,0.21,0.32,-0.25,-0.14,0.03,1.02,,,
535,-0.04,0.71,0.07,-0.13,0.03,1.02,,,
536,-0.18,0.65,-0.05,-0.14,0.04,1.02,,,
537,0.24,0.27,-0.16,-0.14,0.03,1.02,,,
538,-0.08,-0.63,-0.05,-0.14,0.03,1.03,,,
539,0.11,-2.07,0.2,-0.14,0.03,1.02,,,
540,0.19,-2.44,0.11,-0.13,0.04,1.03,,,
541,0.22,-3.5,0.24,-0.13,0.03,1.02,,,
542,0.52,-3.48,0.33,-0.13,0.03,1.01,,,
543,0.54,-1.95,0.25,-0.13,0.04,1.02,,,
544,0.34,-1.64,0.39,-0.13,0.04,1.02,,,
545,0.64,-3.25,0.75,-0.13,0.04,1.03,,,
546,0.67,-2.65,0.46,-0.14,0.04,1.02,,,
547,0.2,-2.25,0.55,-0.13,0.03,1.02,,,
548,0,-0.71,0.49,-0.13,0.03,1.02,,,
549,-0.32,0.9,0.24,-0.13,0.04,1.02,,,
550,-0.6,2.76,0.28,-0.13,0.03,1.02,,,
551,-0.56,3.37,-0.22,-0.13,0.03,1.02,,,
552,-0.36,3.17,-0.46,-0.13,0.03,1.02,,,
553,-0.41,2.45,-0.13,-0.13,0.04,1.02,,,
554,0.01,2.79,-0.64,-0.13,0.03,1.02,,,
555,-0.12,1.57,-0.7,-0.14,0.03,1.02,,,
556,-0.09,1.25,-0.35,-0.13,0.04,1.02,,,
557,-0.25,1.09,-0.36,-0.13,0.04,1.02,,,
558,-0.22,0.52,0.05,-0.13,0.04,1.03,,,
559,-0.16,-0.55,0.3,-0.14,0.03,1.03,,,
560,0.01,-1.03,-0.06,-0.13,0.03,1.02,,,
561,0.2,-1.09,0.24,-0.13,0.04,1.03,,,
562,-0.35,-1.28,0.09,-0.13,0.03,1.02,,,
563,0.36,-1.52,0.33,-0.14,0.03,1.02,,,
564,0.35,-1.31,0.26,-0.13,0.04,1.02,,,
565,0.29,-0.81,0.27,-0.13,0.03,1.02,,,
566,0.19,-0.11,0.3,-0.13,0.04,1.02,,,
567,0.19,-0.04,0.21,-0.13,0.04,1.02,,,
568,-0.08,0.77,-0.02,-0.13,0.03,1.02,,,
569,-0.09,0.92,-0.28,-0.13,0.03,1.03,,,
570,-0.38,-0.72,-0.58,-0.11,0.03,1.03,,,
571,-0.05,-0.49,-0.58,-0.14,0.04,1.02,,,
572,0.14,0.67,-0.46,-0.14,0.03,1.02,,,
573,-0.27,0.41,0.06,-0.15,0.05,1.02,,,
574,0.19,-1.53,-0.37,-0.14,0.03,1.01,,,
575,0.36,-15.79,-7.24,-0.07,0.14,1.03,,,
576,-0.06,-20.42,-43.2,-0.06,0.06,1.09,,,
577,2.78,-20.86,-3.03,-0.35,-0.13,1.03,,,
578,-2.5,-8.7,3.23,-0.09,0.04,1.02,,,
579,-2.72,-3.18,0.87,-0.14,0.08,1.21,,,
580,4.01,0.77,-13.16,-0.2,0.1,1.12,,,
581,17.13,53.44,-9.07,-0.17,0,0.99,,,
582,31.66,158.36,3.49,-0.15,-0.04,1.01,,,
583,0.46,252.13,12.56,0.05,0.04,1.25,,,
584,-4.38,252.13,3.18,-0.14,-0.03,0.92,,,
585,-10.96,252.13,1.1,-0.46,0.16,1.02,,,
586,-4.29,147.31,-14.09,-0.51,0.05,0.38,,,
587,-4.24,46.57,-2.45,-0.76,0.15,0.99,,,
588,0.3,13.53,-0.78,-0.45,0.03,0.81,,,
589,-7.14,2.64,1.88,-0.58,0.05,0.99,,,
590,-14.7,89.58,9.19,-0.49,-0.03,1.14,,,
591,6.06,164.72,3.66,-0.78,0.03,0.82,,,
592,40.24,66.22,-30.71,-0.86,-0.24,0.46,,,
593,8.53,16.54,-51.32,-0.95,-0.14,1.24,,,
594,-55.8,-64.3,-41.83,-0.79,-0.14,1.27,,,
595,-110.22,-143.34,-25.23,-0.44,-0.08,1.04,,,
596,-132.48,-221.46,12.62,-0.57,-0.03,0.9,,,
597,-79,-248.13,37.06,-0.33,-0.11,0.43,,,
598,-17.57,-124.74,27.62,-0.47,-0.19,0.52,,,
599,50.15,-204.93,-15.44,-0.69,-0.15,0.98,,,
600,130.01,-223.81,-35.77,-0.6,0.01,0.61,,,
601,115.4,-248.13,-84.16,-0.53,-0.12,1.18,,,
602,119.58,-233.36,-111.18,-0.12,0.16,0.96,,,
603,146.12,-226.33,-81.01,0.31,0.26,0.9,,,
604,150.3,-163.46,-46.74,0.55,0.3,1.04,,,
605,98.37,-96.47,-7.33,0.87,0.29,0.71,,,
606,15.75,-85.84,34.07,0.5,0.45,1.32,,,
607,-20.53,-95.1,64.03,0.55,0.59,1.04,,,
608,-39.86,-70.78,68.07,0.44,0.34,0.73,,,
609,-28.92,-26.94,35.54,0.08,0,0.84,,,
610,-0.51,174.15,21.96,0.27,0.01,0.02,,,
611,54.23,122.99,23.6,-0.19,-0.17,0.34,,,
612,80.49,81.67,43.02,0.01,-0.04,0.72,,,
613,78.23,78.51,25.1,-0.02,0.17,1.09,,,
614,64.72,106.35,24.03,0.09,0.25,1.18,,,
615,32.39,97.88,7.09,-0.14,0.21,1.33,,,
616,-20.9,67.98,-20.74,-0.09,0.19,1.38,,,
617,-63.59,51.7,-28.67,-0.02,0.13,1.19,,,
618,-87.39,42.29,-36.28,-0.08,0.19,1.03,,,
619,-110.56,33.08,-38.55,-0.03,0.22,1.04,,,
620,-124.11,-10.9,-22.27,-0.21,0.07,1.06,,,
621,-123.42,-27.36,-19.45,-0.31,0.08,0.93,,,
622,-104.22,-29.2,-20.92,-0.12,0.06,0.85,,,
623,-73.49,16.46,-29.83,-0.04,0.07,0.92,,,
624,-43.43,33.09,-36.97,-0.04,-0.14,1.06,,,
625,-30.41,38.61,-25.04,0.02,-0.09,1.06,,,
626,-9.88,9.72,-9.26,0.03,0.01,0.95,,,
627,20.46,-12.28,3.27,0.11,0,0.86,,,
628,48.17,-10.04,25.1,0.17,0,0.99,,,
629,51.74,48.19,36.49,0,-0.02,1.08,,,
630,43.62,36.42,48.08,-0.14,0.06,1.31,,,
631,-13.16,136.68,-11.76,-0.15,0.23,1.68,,,
632,-18.12,-33.25,-12.3,0.12,-0.06,0.74,,,
633,-1.08,-12.56,-14.69,0.27,0.12,0.67,,,
634,11.96,-28.3,-4.31,0.11,0.05,0.97,,,
635,16.86,-10.49,12.52,0.29,0.02,0.9,,,
636,12.77,18.31,22.69,0.13,0.01,0.97,,,
637,3.27,27.98,27.89,-0.01,0.01,1.09,,,
638,12.84,24.53,21.26,-0.05,0.02,0.92,,,
639,30.59,30.34,15.88,-0.03,0.03,0.86,,,
640,40.74,48.9,17.32,-0.11,0,1.01,,,
641,30.78,90.65,12.44,-0.21,0.04,1.12,,,
642,6.66,78.28,6.91,-0.32,0.02,1.21,,,
643,-14.5,42.08,0.25,-0.35,0.02,1.15,,,
644,-25.74,27.48,-11.53,-0.39,0.03,1.05,,,
645,-30.96,3.73,-27.04,-0.29,0.08,0.83,,,
646,-40.33,10.07,-44.51,-0.4,-0.02,0.99,,,
647,-44.07,8.87,-46.35,-0.32,0.02,1.02,,,
648,-42.46,-0.55,-37.28,-0.29,0.03,0.99,,,
649,-23.41,-36.87,-22.62,-0.17,0.05,0.89,,,
650,4.85,-74.46,7.39,-0.08,-0.04,0.77,,,
651,32.2,-124.1,39.84,-0.18,0.18,0.87,,,
652,46.26,-103.81,19.96,-0.34,-0.04,1.02,,,
653,10.56,-28.35,-32.75,-0.31,-0.11,1.19,,,
654,-6.52,19.77,-42.01,-0.12,0.06,1.06,,,
655,-3.76,22.84,-31.69,0.07,0.1,1.06,,,
656,18.32,-18.85,-15.58,0.07,0.12,1,,,
657,43.75,-68.62,-7.67,0.11,0.11,1.08,,,
658,44.91,-84.58,-4.71,0.23,0.13,1.18,,,
659,36.02,-61.99,8.5,0.48,0.17,1.23,,,
660,22.98,-29.02,31.09,0.56,0.24,1.26,,,
661,14.33,-14.95,53.14,0.46,0.23,1.18,,,
662,17.84,-15.1,59.8,0.33,0.16,1.1,,,
663,17.27,-12.1,52.28,0.24,0.11,1.09,,,
664,21.1,-6.89,34.95,0.17,0.07,1,,,
665,26.14,14.91,16.17,0.23,0.07,0.95,,,
666,28.67,42.47,0.92,0.3,0.04,0.93,,,
667,24.07,69.35,-7.41,0.28,0.06,0.97,,,
668,9.45,77.37,-16.97,0.13,0.14,0.96,,,
669,-5.66,69.32,-26.94,0.05,0.14,1.01,,,
670,-18.86,40.71,-31.57,-0.02,0.12,1.02,,,
671,-29.8,14.74,-39.51,-0.12,0.15,0.96,,,
672,-39.85,17.42,-37.65,-0.15,0.13,0.92,,,
673,-42.76,-1.49,-17.69,-0.13,0.06,0.89,,,
674,-34.38,-22.39,10.84,-0.13,0.04,0.8,,,
675,-17.54,-4.92,30.58,-0.08,0.04,0.66,,,
676,6.14,53.21,48.25,-0.03,-0.03,0.71,,,
677,28.4,97.95,54.33,-0.22,-0.03,0.87,,,
678,48.21,67.93,54.17,-0.41,-0.03,0.96,,,
679,50.13,-8.16,63.67,-0.22,-0.02,1.13,,,
680,25.61,-14.19,73.39,-0.21,0.07,1.18,,,
681,-16.59,-2.1,68.65,-0.32,0.11,1.2,,,
682,-40.48,16.06,57.99,-0.33,0.03,0.93,,,
683,-36.6,24.75,43.91,-0.35,-0.03,0.71,,,
684,-16.44,62,22.37,-0.36,0.03,0.5,,,
685,4.57,134.8,-4.12,-0.53,0.05,0.72,,,
686,91.73,81.79,11.75,-0.28,-0.17,0.71,,,
687,60.17,134.13,13.39,-0.92,0.04,1.64,,,
688,21.83,40.38,-27.25,-0.85,0.09,1.52,,,
689,7.46,9.9,-43.02,-0.6,0.15,1.11,,,
690,14.29,15.96,-44.19,-0.36,0.13,0.82,,,
691,19.69,84.18,-38.43,-0.07,0.17,0.77,,,
692,25.01,133.21,-15.1,0,0.25,0.83,,,
693,34.78,160.05,23.33,-0.1,0.3,0.78,,,
694,-33.38,73.45,-20.51,0.14,0.06,0.61,,,
695,-70.83,69.66,-55.93,-0.58,0.22,0.98,,,
696,-11.95,-81.2,7.77,0.99,-0.05,-0.01,,,
697,-18.89,-108.24,19.23,-0.65,0.01,1.51,,,
698,-6.05,-64.54,48.39,-0.41,0.11,0.81,,,
699,-14.3,-46.74,27.59,-0.49,0.02,0.89,,,
700,-11.88,-57.15,24.48,-0.46,0.1,0.92,,,
701,-9.1,-72.31,17.04,-0.42,0.11,0.93,,,
702,-7.04,-85.78,11.65,-0.38,0.1,0.97,,,
703,-4.93,-85.07,12.53,-0.23,0.09,0.98,,,
704,-4.58,-50.09,15.55,-0.14,0.1,1.09,,,
705,-2.41,-21.76,23.22,-0.09,0.09,0.95,,,
706,-5.49,-35.78,31.97,-0.17,0.12,1.08,,,
707,-7.73,-65.84,44.59,-0.04,0.08,0.92,,,
708,-4.83,-119,59.4,-0.02,0.11,0.87,,,
709,-2.86,-220.67,56.33,-0.42,0.14,1.15,,,
710,16.94,-21.5,9.48,0.03,-0.1,-0.33,,,
711,-3.71,-24.72,-0.12,-0.32,0.08,0.95,,,
712,4.11,5.93,0.12,-0.09,0.12,0.98,,,
713,0.22,-4.71,0.13,-0.09,0.08,0.96,,,
714,-1.18,-4.39,0.07,-0.11,0.1,1.03,,,
715,0.56,0.93,-0.02,-0.11,0.1,1.01,,,
716,0.79,-0.9,0.2,-0.12,0.08,1.05,,,
717,0.72,0.23,0.26,-0.1,0.09,1.04,,,
718,0.04,1.03,-0.13,-0.1,0.09,1.03,,,
719,-0.25,1.2,-0.13,-0.11,0.09,1.02,,,
720,-0.08,0.06,-0.32,-0.12,0.09,1,,,
721,-0.38,-0.8,0.04,-0.1,0.09,1.02,,,
722,-2.67,-3.62,-0.28,-0.11,0.1,1.02,,,
723,2.23,9.16,0.3,-0.06,0.07,0.93,,,
724,-5.73,-12.68,-0.41,-0.21,0.1,1.05,,,
725,-2.05,-2.62,-0.48,-0.11,0.11,1.12,,,
726,-2.05,0.13,-0.13,-0.11,0.09,1.06,,,
727,-2.33,0.45,1.31,-0.11,0.08,1.01,,,
728,-3.15,-0.29,2.68,-0.09,0.07,0.96,,,
729,-7.64,-2,2.91,-0.11,0.08,1.01,,,
730,-5.49,0.16,-10.41,-0.25,0.04,1.03,,,
731,-10.85,-9.33,-3.49,-0.04,0.14,1.11,,,
732,-12.64,-4.99,6.23,-0.13,0.08,1.11,,,
733,-12.13,-4.07,8.44,0.02,0.07,0.85,,,
734,-8.56,-3.03,9.59,-0.05,0.06,1.02,,,
735,-4.72,-3.13,7.11,-0.02,0.04,1.04,,,
736,-2.47,-7.1,4.07,0,0.1,0.9,,,
737,1.64,1.89,-53.55,-0.66,-0.14,0.84,,,
738,0.14,1.85,-115.04,-0.33,0.04,1.06,,,
739,1.67,-2.34,-129.79,-0.26,0.18,1.05,,,
740,-1.9,-7.43,-115.52,0.07,0.14,0.88,,,
741,-6.83,-4,-101.77,-0.02,0.06,1,,,
742,-2.93,-6.52,-86.54,-0.03,0.06,1.03,,,
743,1.32,-2.77,-55.22,0.08,0.06,1.09,,,
744,2.55,2.76,-18.14,0.07,0.08,1.08,,,
745,-2.08,-1.16,6.11,-0.05,0.08,1.07,,,
746,-1.95,1.11,5.91,-0.14,0.06,1.04,,,
747,-2.8,4.29,4.4,-0.11,0.06,0.97,,,
748,-5.14,2.77,3.68,-0.14,0.05,1,,,
749,-5.63,-1.16,3.69,-0.14,0.01,0.98,,,
750,-6.91,-4.16,4.13,-0.11,0.02,0.98,,,
751,-10.66,-16.61,14.2,0.55,-0.21,1.12,,,
752,-12.94,-0.28,26.49,0.12,0.08,1.22,,,
753,-10.61,5.09,22.53,-0.33,0.31,1.04,,,
754,-13.47,1.2,19.18,-0.32,0.17,1.04,,,
755,-11.97,-1.55,1,-0.28,0.05,1.06,,,
756,-9.15,0.92,-5.3,-0.1,0.08,1.07,,,
757,-8.53,3.95,-5.95,-0.1,0.06,1.02,,,
758,-9.78,5.5,-6.57,-0.14,0.09,1.07,,,
759,-8.42,2.29,-3.34,-0.11,0.03,1.07,,,
760,-8.77,-0.57,-1.4,-0.09,-0.02,0.89,,,
761,-7.65,-4.08,-3.19,-0.21,-0.06,0.97,,,
762,-5.66,-2.82,-11.85,-0.22,-0.05,0.86,,,
763,-5.24,-8.98,-12.66,-0.12,-0.01,0.95,,,
764,-5.99,-10.57,-13.97,-0.1,0,0.99,,,
765,-5.89,-5.87,-13.61,-0.05,0,1.04,,,
766,-5.18,-4.21,-12.93,-0.08,0.02,1.12,,,
767,-1.97,0.4,-10.69,-0.03,0,1,,,
768,1.56,4.27,-6.78,-0.01,-0.08,1,,,
769,7.78,2.85,-3.32,-0.01,-0.09,1,,,
770,12.31,3.05,-1.83,0,-0.09,1.01,,,
771,14.03,4.37,-1.45,-0.03,-0.03,1.03,,,
772,14.4,4.55,-0.84,-0.05,-0.02,0.98,,,
773,9.83,0.25,-0.21,-0.11,-0.02,1.02,,,
774,7.39,1.56,-0.55,-0.08,-0.01,1.06,,,
775,5.51,2.87,-1.83,-0.12,0.01,1.06,,,
776,5.56,3.64,-1.83,-0.11,-0.01,1.03,,,
777,2.06,4.46,-2.58,-0.12,0.04,1.06,,,
778,0.12,-0.73,-20.28,-0.22,0.03,1.09,,,
779,-0.21,-1.95,-17.74,-0.04,0.04,0.98,,,
780,-2.39,-4.33,-1.22,-0.02,0.05,1,,,
781,-3.96,-5.91,0.55,-0.09,0.05,1.01,,,
782,-3.89,-8.81,-0.1,-0.12,0.04,1.07,,,
783,-1.84,-5.27,0.23,-0.1,0.01,1.05,,,
784,-2.06,2.3,1.52,-0.11,0.01,1.04,,,
785,-0.92,3.98,1.47,-0.1,0.02,1.05,,,
786,-1.59,5.07,0.95,-0.12,-0.02,1.04,,,
787,-1.06,5.03,0.92,-0.11,-0.02,1,,,
788,1.48,4.63,0.62,-0.11,-0.03,0.99,,,
789,3.36,0.93,0.67,-0.1,-0.03,0.97,,,
790,4.29,1.11,0.57,-0.09,-0.01,0.97,,,
791,3.59,1.03,0.37,-0.09,0.01,1.02,,,
792,3.75,-0.31,-0.3,-0.1,0.02,1.02,,,
793,4.48,0.2,-1.04,-0.11,0.03,1.04,,,
794,4.6,0.13,-2.23,-0.11,0.05,1.03,,,
795,4.29,-0.28,-3.68,-0.1,0.06,1.04,,,
796,2.2,0.62,-4.04,-0.08,0.03,1.02,,,
797,1.56,0,-3.03,-0.08,0.02,1.04,,,
798,2.38,-0.55,-1.45,-0.06,0.03,1.01,,,
799,2.07,-1.49,-1.23,-0.07,0.05,1.01,,,
800,0.32,-1.2,-0.85,-0.07,0.04,1.04,,,
801,-1.12,-2.13,-0.82,-0.07,0.04,1.04,,,
802,-2.35,-1.51,-0.8,-0.06,0.04,1.04,,,
803,-1.88,-1.19,-0.01,-0.05,0.01,1,,,
804,-1.01,-1.16,0.2,-0.06,0.02,1.03,,,
805,-0.33,-1.23,-0.09,-0.07,0.01,1.03,,,
806,-0.8,0.35,0.42,-0.08,0.01,1.05,,,
807,-0.61,0.12,0.79,-0.09,0.01,1.04,,,
808,-0.41,1.43,0.64,-0.1,0.02,1.04,,,
809,-0.01,0.71,0.72,-0.11,0.02,1.02,,,
810,0.14,0.32,0.3,-0.11,0.01,1.02,,,
811,0.38,-0.45,0.58,-0.11,0.01,1.01,,,
812,0.82,1.47,0.3,-0.09,0.01,1.01,,,
813,1.23,0.58,0.2,-0.1,0.02,1,,,
814,1.45,1.11,0.3,-0.1,0.02,1.02,,,
815,1.92,0.72,-0.25,-0.09,0.03,1.04,,,
816,1.77,0.55,-0.27,-0.08,0.02,1.03,,,
817,1.4,1.52,-0.51,-0.06,0.02,0.99,,,
818,-6.61,4.58,-6.9,-0.05,0.05,1.01,,,
819,-0.51,-4.25,-2.12,-0.01,0.06,1.08,,,
820,-1.84,0.93,-1.16,-0.06,0.05,1.13,,,
821,0.72,2.33,-0.4,-0.06,0,1.04,,,
822,-0.44,0.96,-0.51,-0.06,0.02,1.02,,,
823,0.94,2.35,-0.16,-0.07,0.02,1.06,,,
824,1.36,2.4,0.01,-0.09,0.01,1.05,,,
825,1.36,2.03,0.6,-0.09,0,0.92,,,
826,-0.62,2.21,0.69,-0.11,0.02,0.99,,,
827,-0.34,1.99,0.75,-0.11,0.02,1,,,
828,1.04,1.47,0.81,-0.11,0.02,0.99,,,
829,2.05,0.86,0.73,-0.11,0.03,1,,,
830,2.68,1.16,0.47,-0.12,0.05,1.03,,,
831,1.77,0.35,0.68,-0.11,0.05,1.05,,,
832,-0.52,-0.68,0.4,-0.1,0.04,1.03,,,
833,-3.53,-2.66,1.31,-0.08,0.03,1.01,,,
834,-4.33,-4.68,2.05,-0.06,0.02,1.01,,,
835,-4.6,-7.62,2.53,-0.12,0.03,1.04,,,
836,-3.41,-4.24,2.55,-0.06,0.03,1.09,,,
837,-3.48,-0.5,2.32,-0.05,0.04,1.1,,,
838,-4.05,1.07,2.26,-0.06,0.01,1.05,,,
839,-3.99,4.02,2.68,-0.07,0.02,1.08,,,
840,-3.09,8.43,2.33,-0.09,0.05,1.07,,,
841,-2.43,7.33,0.78,-0.09,0.07,1.01,,,
842,-3.23,6.73,0.57,-0.08,0.04,1.01,,,
843,-2.64,8.24,0.81,-0.1,0.04,1.04,,,
844,-2.86,5.55,1.92,-0.12,0.01,1.04,,,
845,-2.66,2.54,2.62,-0.11,0,1.02,,,
846,0.24,6.74,3.23,-0.12,0.03,1.08,,,
847,3.51,14.5,1.75,-0.13,0.06,1.12,,,
848,7.41,15.05,1.07,-0.14,0.01,1.1,,,
849,10.16,15.61,0.76,-0.14,0.01,1.05,,,
850,12.41,16.61,2.06,-0.11,-0.02,1.05,,,
851,14.07,16.64,2.89,-0.14,-0.03,1.03,,,
852,14.4,14.38,4.89,-0.17,-0.05,1.05,,,
853,13.47,13,6.47,-0.13,-0.02,0.97,,,
854,14,11.73,6.92,-0.13,0.01,0.95,,,
855,10.79,10.98,6.7,-0.13,0.01,0.95,,,
856,9.42,8.27,6.67,-0.16,0.02,1,,,
857,9.76,11.32,7.13,-0.14,0.04,1.05,,,
858,8.64,13.93,6.96,-0.12,0.02,1.05,,,
859,4.04,16.33,8.06,-0.13,0.03,1.12,,,
860,-2.69,18.93,9.88,-0.13,0.04,1.09,,,
861,-8.62,25.18,13.01,-0.13,-0.02,1.15,,,
862,-9.76,18.45,13.77,-0.15,-0.04,0.97,,,
863,-17.33,1.8,3.51,-0.29,0.08,0.93,,,
864,-12.87,0.78,-6.96,-0.16,0.01,1.1,,,
865,-6.89,6.71,-7.96,-0.04,-0.03,1.01,,,
866,-7.49,9.82,-5.61,-0.1,0.02,1.05,,,
867,-11.86,6.49,-3.35,-0.15,0.05,1.05,,,
868,-17.17,0.8,-1.58,-0.14,0,0.99,,,
869,-18.02,0.84,0.26,-0.14,-0.01,0.98,,,
870,-13.75,0.77,1.75,-0.14,-0.05,1.02,,,
871,-4.31,-5.42,3.67,-0.17,-0.08,1.03,,,
872,7.44,-2.72,5.59,-0.14,-0.09,1.08,,,
873,15.56,-1.25,7.25,-0.14,-0.06,1.07,,,
874,18.32,-3.49,8.62,-0.13,-0.04,1.07,,,
875,16.48,-2.1,10.46,-0.13,-0.04,1.08,,,
876,14.76,0.03,11.45,-0.12,-0.04,1.06,,,
877,15.49,10.22,12.36,-0.1,-0.05,1.11,,,
878,17.93,-3.81,10.52,-0.12,-0.03,1,,,
879,18.44,-7.84,9.12,-0.12,-0.03,1.03,,,
880,16.75,-3.56,6.28,-0.13,-0.03,1.02,,,
881,11.53,-2,4.78,-0.14,-0.03,1.04,,,
882,5.39,-4.31,2.3,-0.15,0,1.03,,,
883,-0.83,-2.46,-0.87,-0.16,0.02,1.02,,,
884,-6.54,-3.11,-3.62,-0.2,0.02,0.98,,,
885,-9.55,-10.13,-2.58,-0.15,-0.02,0.96,,,
886,-11.66,-11.88,17.05,0.02,-0.04,1,,,
887,-12.15,-12.2,24.1,-0.21,-0.03,0.94,,,
888,-14.28,-12.76,19.08,-0.33,-0.01,0.91,,,
889,-12.91,-13.4,6.21,-0.36,-0.06,0.92,,,
890,-11.49,-16.84,3.87,-0.18,-0.14,1.02,,,
891,-12.18,-14.32,15.47,-0.08,-0.13,1,,,
892,-15.44,-14.62,18.84,-0.24,-0.11,0.95,,,
893,-16.96,-15.65,14.59,-0.34,-0.13,0.92,,,
894,-13.6,-14.05,7.37,-0.27,-0.14,0.94,,,
895,-9.91,-15.89,14.46,-0.02,-0.16,0.97,,,
896,-7.81,-17.35,21.39,-0.12,-0.13,0.96,,,
897,-4.79,-15.94,17.97,-0.23,-0.13,0.96,,,
898,-0.98,-16.41,8.14,-0.22,-0.14,1.02,,,
899,2.91,-8.97,3.81,-0.19,-0.1,1.09,,,
900,4.82,-9.23,3.01,-0.12,-0.05,1.1,,,
901,5.64,-6.76,2.62,-0.08,0.01,1.17,,,
902,7.76,-0.36,5.38,-0.01,0.04,1.22,,,
903,11.34,-3.2,10.96,-0.02,0.04,1.11,,,
904,12.94,-3.1,11.62,-0.17,0.14,1.27,,,
905,14.3,1.19,8.66,-0.13,0.17,1.14,,,
906,10.76,4.61,4.75,-0.07,0.26,1.2,,,
907,6.14,9.48,1.74,-0.05,0.25,1.19,,,
908,0.32,7.46,0.48,-0.02,0.26,1.16,,,
909,-3.3,9.22,-3.09,0.03,0.26,1.22,,,
910,-7.12,12.32,2.21,0.01,0.31,1.23,,,
911,-11.32,12.12,2.4,-0.17,0.31,1.24,,,
912,-8.85,17.27,-4.5,-0.25,0.27,1.24,,,
913,-9.26,4.48,-5.5,-0.15,0.26,1.29,,,
914,-5.8,1.36,-0.69,-0.12,0.24,1.25,,,
915,1.04,7.01,-2.41,-0.22,0.25,1.35,,,
916,9.31,6.18,-4.12,-0.18,0.23,1.31,,,
917,16.58,-2.68,-5.99,-0.18,0.24,1.34,,,
918,24.48,-2.62,-7.89,-0.19,0.22,1.34,,,
919,31.88,0.13,-10.25,-0.19,0.21,1.31,,,
920,37.17,1.79,-13,-0.2,0.23,1.3,,,
921,39.66,1.8,-16.08,-0.21,0.25,1.31,,,
922,43.34,6.64,-16.35,-0.23,0.27,1.3,,,
923,44.32,12.29,-18.14,-0.21,0.27,1.22,,,
924,42.58,8.01,-21.19,-0.16,0.27,1.07,,,
925,37.62,10.12,-23.58,-0.17,0.21,1.06,,,
926,33.36,14.6,-27.35,-0.18,0.21,1,,,
927,29.65,19.42,-31.32,-0.14,0.2,0.95,,,
928,24.46,18.45,-34.66,-0.12,0.2,0.86,,,
929,18.03,12.34,-35.67,-0.07,0.19,0.76,,,
930,14.28,7.71,-37.62,-0.13,0.19,0.78,,,
931,11.86,5.19,-38.39,-0.16,0.19,0.82,,,
932,12.45,6.75,-38.33,-0.08,0.13,0.74,,,
933,11.93,-11.65,-38.45,-0.17,0.13,0.73,,,
934,10.02,-15.04,-39.35,-0.18,0.1,0.72,,,
935,4.2,-14.55,-36.57,-0.11,0.07,0.63,,,
936,-0.15,-7.83,-36.1,-0.16,0.11,0.74,,,
937,-0.08,-5.51,-36.57,-0.15,0.12,0.74,,,
938,2.58,-17.36,-35.85,-0.14,0.1,0.76,,,
939,5.78,-20.16,-36.34,-0.18,0.09,0.82,,,
940,8.78,-19.52,-37.45,-0.14,0.08,0.76,,,
941,6.86,-23.85,-37.99,-0.12,0.09,0.77,,,
942,7.24,-19.74,-41.11,-0.19,0.15,0.88,,,
943,8.04,-15.24,-45.07,-0.21,0.13,0.93,,,
944,8.77,-13.91,-49.74,-0.17,0.1,0.93,,,
945,4.54,-14.65,-52.86,-0.14,0.07,0.88,,,
946,-0.34,-6.98,-54.25,-0.15,0.09,0.85,,,
947,-5.83,3.01,-57.89,-0.16,0.13,0.91,,,
948,-9.87,0.38,-61.23,-0.18,0.13,0.93,,,
949,-10.34,3.58,-63.87,-0.17,0.09,0.89,,,
950,-12.55,4.02,-62.24,-0.15,0.04,0.89,,,
951,-15.22,6.45,-58.73,-0.15,0.03,0.92,,,
952,-15.87,-4.57,-54.14,-0.13,0.04,0.9,,,
953,-11.38,-0.88,-49.03,-0.16,0.05,0.98,,,
954,-4.44,-2.49,-44.49,-0.15,0.07,0.96,,,
955,-1.73,0.1,-40.64,-0.1,0.07,0.92,,,
956,0.53,-0.11,-37.09,-0.13,0.08,0.97,,,
957,3.98,0.32,-35.81,-0.09,0.08,0.89,,,
958,5.54,-4.99,-35.7,-0.14,0.1,0.98,,,
959,4.91,-0.33,-35.07,-0.12,0.05,0.88,,,
960,4.11,-4.22,-33.51,-0.11,0.05,0.83,,,
961,4.25,-4.64,-32.01,-0.15,0.02,0.89,,,
962,4.33,-8.21,-28.93,-0.22,0.05,0.96,,,
963,3.27,-6.1,-27.98,-0.2,0.07,0.91,,,
964,2.29,-12.1,-26.77,-0.21,0.01,0.83,,,
965,-1.62,-12.33,-24.87,-0.25,0.09,0.95,,,
966,-4.09,-11.69,-23.46,-0.29,0.15,0.99,,,
967,-3.53,-11.93,-20.91,-0.17,0.03,0.9,,,
968,-2.26,-9.07,-19.42,-0.14,0.02,0.99,,,
969,-2.1,-6.91,-20.15,-0.18,0.09,1.02,,,
970,-0.81,-6.76,-22.21,-0.18,0.07,1.05,,,
971,-1.81,-6.13,-23.55,-0.21,0.02,1.07,,,
972,-3.83,-3.68,-24.38,-0.24,0.02,1.12,,,
973,-4.92,2.73,-24.25,-0.26,0.13,1.07,,,
974,-8.04,3.52,-23.14,-0.26,0.11,1.12,,,
975,-7.47,0.81,-21.53,-0.26,0.04,1.1,,,
976,-6.23,-0.04,-18.86,-0.23,-0.02,1.08,,,
977,-6.26,-1.71,-15.64,-0.23,-0.06,1.01,,,
978,-7.12,-3.51,-12.91,-0.22,-0.03,1.04,,,
979,-7.47,-4.31,-11.87,-0.23,0.02,1.07,,,
980,-5.8,-5.25,-11.56,-0.22,0.04,1.08,,,
981,-4.56,-6.84,-11.12,-0.21,0.02,1.04,,,
982,-3.18,-8.94,-10.74,-0.2,0.03,0.99,,,
983,-1.83,-9.67,-10.54,-0.18,0.01,0.97,,,
984,-0.6,-10.99,-10.87,-0.19,0.01,0.97,,,
985,-0.98,-12.55,-11.37,-0.18,-0.01,0.95,,,
986,-2.92,-13.92,-10.19,-0.15,-0.03,0.88,,,
987,-5.89,-14.15,-10.17,-0.14,-0.05,0.85,,,
988,-6.42,-13.56,-9.96,-0.13,-0.06,0.9,,,
989,-3.86,-13.68,-8.76,-0.12,-0.05,0.95,,,
990,1.64,-13.6,-5.38,-0.13,-0.09,0.95,,,
991,6.39,-13.19,-1.5,-0.11,-0.12,0.96,,,
992,10.64,-10.57,4.5,-0.1,-0.11,1,,,
993,14.72,-7.46,12.84,-0.13,-0.1,1.02,,,
994,18.61,-8.44,22.37,-0.09,-0.08,1.06,,,
995,19.69,-6.03,30.71,-0.07,-0.06,1.04,,,
996,17.27,-1.91,39.89,-0.06,-0.05,1.07,,,
997,15.38,4.96,51.04,-0.01,-0.01,1.06,,,
998,11.1,11.58,57.8,0.01,0.18,1.14,,,
999,9.28,15.53,58.89,0.01,0.24,1.19,,,
1000,4.49,20.27,58.55,0.03,0.25,1.22,,,
1001,-1.56,24.96,57.02,0.07,0.25,1.18,,,
1002,-5.22,28.84,55.04,0.08,0.21,1.13,,,
1003,-7.36,28.8,52.86,0.07,0.22,1.16,,,
1004,-5.38,26.49,49.98,0.07,0.22,1.17,,,
1005,-1.89,23.27,47.76,0.06,0.2,1.12,,,
1006,0.53,20.32,45.27,0.06,0.23,1.09,,,
1007,1.24,15.95,42.42,0.03,0.22,1.06,,,
1008,1.95,9.25,42.01,0.04,0.15,1.02,,,
1009,-0.25,6.35,39.49,0.04,0.16,0.93,,,
1010,-2.69,-0.32,40.45,0.04,0.14,1.02,,,
1011,-2.87,-2.75,41.24,0.04,0.14,0.95,,,
1012,-3.04,-6.87,40.52,0.01,0.13,1.02,,,
1013,-1.31,-8.62,40.35,0,0.11,1,,,
1014,-1.89,-8.29,39.92,-0.01,0.05,1.03,,,
1015,-2.31,-8.96,40.65,-0.01,0.01,1.01,,,
1016,-4.92,-7.95,40.14,0.03,0.01,1.03,,,
1017,-4.92,-6.98,39.47,0.03,0.06,1.03,,,
1018,-6.63,-6.72,39.1,0,0.08,1.05,,,
1019,-9.41,-8.35,37.55,-0.03,0.08,1.04,,,
1020,-13.81,-10.42,36.18,-0.04,0.05,1.01,,,
1021,-15.05,-11.36,35.13,-0.03,0.05,0.97,,,
1022,-14.07,-11.33,33.45,-0.02,0.04,0.93,,,
1023,-10.67,-13.04,31.5,0,0.05,0.94,,,
1024,-6.59,-12.15,28.86,0.01,0.08,0.97,,,
1025,1.08,-11.93,25.77,0,0.06,0.94,,,
1026,-4.75,-15.33,23.51,0,0.02,0.96,,,
1027,-8.76,-13.34,23.52,-0.04,0.03,1.05,,,
1028,-10.89,-7.68,23.7,-0.06,-0.01,1.05,,,
1029,-13.49,-2.67,24.65,-0.07,-0.05,0.98,,,
1030,-11.82,-1.47,28.4,-0.08,-0.08,1.04,,,
1031,-8.25,-2.1,31.52,-0.07,-0.06,1.04,,,
1032,-3.87,2.51,33.14,-0.04,-0.05,1.02,,,
1033,-2.81,6.55,33.52,-0.02,-0.06,1.04,,,
1034,-3.45,9.54,33.62,-0.01,-0.09,1.01,,,
1035,-6.27,13.09,32.4,0.01,-0.1,1,,,
1036,-9.29,17.3,32.13,0.02,-0.12,1,,,
1037,-11.13,19.07,30.65,0.03,-0.09,1.01,,,
1038,-10.03,22.22,29.07,0.04,-0.07,1.03,,,
1039,-6.83,22.47,27.45,0.01,-0.08,1.05,,,
1040,-5.16,20.7,26.65,-0.03,-0.06,1.11,,,
1041,-4.95,25.64,23.93,-0.04,-0.03,1.1,,,
1042,-6.8,46.63,20.56,0,-0.02,1.07,,,
1043,-10.15,44.09,17.4,-0.17,0.02,1.23,,,
1044,-11.64,28.71,14.53,-0.02,-0.06,1.09,,,
1045,-13.54,15,12.94,-0.09,0,1.09,,,
1046,-15.76,12.03,11.86,-0.09,0.03,1.09,,,
1047,-16.51,10.96,11.46,-0.09,0.04,1.11,,,
1048,-16.55,8.88,8.88,-0.11,0.04,1.14,,,
1049,-15.8,8.29,6.42,-0.11,0.07,1.14,,,
1050,-15,5.07,5.94,-0.12,0.09,1.12,,,
1051,-13.84,2.48,4.33,-0.14,0.11,1.14,,,
1052,-11.54,0.31,3.84,-0.15,0.11,1.11,,,
1053,-9.28,-1.85,5.17,-0.12,0.11,1.07,,,
1054,-7.34,-4.02,6.65,-0.12,0.06,0.99,,,
1055,-3.96,-3.54,6.23,-0.11,0.01,0.98,,,
1056,-0.82,-7.02,5.71,-0.11,0.03,0.93,,,
1057,0.36,-7.36,5.64,-0.12,0.05,0.97,,,
1058,1.72,-5.35,4.58,-0.12,0.06,0.97,,,
1059,1.29,-4.79,2.97,-0.11,0.07,0.94,,,
1060,0.01,-2.14,2.44,-0.09,0.04,0.93,,,
1061,0.7,0.9,1.14,-0.1,0.02,0.86,,,
1062,9.79,-6.7,6.91,-0.11,-0.04,0.74,,,
1063,14.94,-3.19,1.65,-0.09,0.04,0.75,,,
1064,16.36,1.07,2.01,-0.04,-0.08,0.87,,,
1065,16.44,-5.93,4.78,-0.04,-0.04,0.72,,,
1066,14.38,-1.75,6.17,-0.02,-0.03,0.84,,,
1067,10.27,-2.81,8.5,0.02,-0.05,0.81,,,
1068,6.46,-9.05,10.47,0.01,-0.05,0.9,,,
1069,5.5,-10.47,11.23,0.01,-0.06,0.95,,,
1070,7.78,-13.78,12.26,0.01,-0.06,0.98,,,
1071,8.42,-16.49,12.62,-0.02,-0.09,1.03,,,
1072,5.62,-14.96,14.93,-0.03,-0.1,1.06,,,
1073,1.62,-10.23,16.98,-0.03,-0.08,1.12,,,
1074,-2.29,-9.43,19.2,-0.05,-0.07,1.18,,,
1075,-5.15,-2.6,21.97,-0.06,-0.08,1.22,,,
1076,-9.18,4.09,24.69,-0.01,-0.02,1.38,,,
1077,-9.67,10.19,26.39,-0.05,-0.03,1.35,,,
1078,-10.58,2.98,31.41,-0.09,0.02,1.33,,,
1079,-13.54,4.03,38.15,-0.08,-0.03,1.19,,,
1080,-20.35,-7.59,44.68,-0.13,-0.04,1.17,,,
1081,-25.4,-12.61,51.18,-0.15,-0.04,1.17,,,
1082,-20.66,-6.91,54.64,-0.17,0.07,1.27,,,
1083,-11.92,-6.7,53.3,-0.13,0.12,1.29,,,
1084,-7.93,-5.63,52.25,-0.12,0.17,1.13,,,
1085,-9.56,-1.15,48.12,-0.09,0.17,1.1,,,
1086,-13.6,5.65,43.66,-0.07,0.14,1.05,,,
1087,-18.47,9.53,39.59,-0.06,0.13,1.01,,,
1088,-18.42,10.38,37.28,-0.02,0.06,0.96,,,
1089,-17.12,9.9,36.75,-0.06,0.08,0.95,,,
1090,-11.67,10.77,37.17,-0.03,0.07,0.94,,,
1091,-6.51,8.77,38.45,-0.05,0.06,0.9,,,
1092,-0.5,9.38,39.07,-0.03,0.04,0.88,,,
1093,2.07,8.38,37.88,-0.07,0.06,0.83,,,
1094,1.89,8.32,36.17,-0.06,0.05,0.79,,,
1095,-0.83,13.96,33.26,-0.09,0.06,0.85,,,
1096,0.01,17.74,29.96,-0.09,0.01,0.87,,,
1097,2.44,20.42,26.62,-0.09,0,0.91,,,
1098,-0.72,10.58,23.91,-0.14,0.03,0.97,,,
1099,-4.8,7.81,22.65,-0.08,0.04,0.86,,,
1100,-10.78,14.87,21.99,-0.12,0,0.91,,,
1101,-10.19,20.9,20.99,-0.1,-0.09,0.95,,,
1102,-8.72,28.36,17.16,-0.16,-0.15,1.04,,,
1103,-7.97,20.81,12.07,-0.13,-0.1,1.04,,,
1104,-5.86,4.86,7.54,-0.07,-0.07,1.07,,,
1105,-6.95,6.22,7.55,-0.18,-0.09,1.12,,,
1106,-13.12,11.67,6.72,-0.19,-0.13,1.22,,,
1107,-18.58,15.25,3.72,-0.22,-0.01,1.21,,,
1108,-23.76,13.16,0.22,-0.23,0.03,1.25,,,
1109,-24.66,11,-1.98,-0.22,-0.01,1.25,,,
1110,-17.61,11.41,-3.9,-0.21,-0.08,1.25,,,
1111,-1.93,10.01,-5.08,-0.2,-0.11,1.25,,,
1112,15.43,8.77,-5.19,-0.18,-0.04,1.19,,,
1113,21.46,5.44,-6.67,-0.19,0.1,1.15,,,
1114,15.87,1.06,-12.25,-0.23,0.18,1.03,,,
1115,4.01,-1.19,-17.54,-0.21,0.14,0.95,,,
1116,-1.89,-1.75,-19.84,-0.18,0.04,0.83,,,
1117,1.61,-3.33,-18.87,-0.19,-0.01,0.77,,,
1118,8.73,-6.91,-18.74,-0.21,0.02,0.82,,,
1119,21.73,-10.31,-19.22,-0.19,0.05,0.82,,,
1120,30.59,-17.14,-19.46,-0.17,0.08,0.78,,,
1121,34.68,-23.62,-19.87,-0.18,0.05,0.82,,,
1122,31.28,-28.7,-19.69,-0.15,0.05,0.83,,,
1123,24.76,-32.29,-19.67,-0.12,-0.01,0.76,,,
1124,18.98,-30.89,-17.32,-0.12,-0.08,0.86,,,
1125,18.85,-23.39,-17.33,-0.09,-0.11,0.93,,,
1126,19.79,-22.65,-18.77,-0.1,-0.07,1.01,,,
1127,19.94,-21.01,-19.41,-0.11,-0.06,1.03,,,
1128,14.49,-17.7,-17.99,-0.12,-0.08,1.03,,,
1129,5.36,-10.59,-15.59,-0.12,-0.11,1.11,,,
1130,-2.66,-6.7,-13.31,-0.13,-0.09,1.16,,,
1131,-9.53,-3.51,-10.01,-0.14,-0.05,1.2,,,
1132,-16.25,-0.35,-6.47,-0.12,-0.08,1.2,,,
1133,-22.22,7.19,-2,-0.13,-0.08,1.27,,,
1134,-28.13,10.44,2.13,-0.16,-0.01,1.16,,,
1135,-34.66,9.54,4.88,-0.14,-0.01,1.28,,,
1136,-41.06,8.83,10.37,-0.12,-0.03,1.22,,,
1137,-45.22,8.34,17.91,-0.12,-0.09,1.19,,,
1138,-43.21,9.83,26.26,-0.12,-0.08,1.21,,,
1139,-32.78,8.47,32.49,-0.16,-0.01,1.25,,,
1140,-20.39,5.44,35.46,-0.17,0.05,1.23,,,
1141,-13.14,0.07,37.25,-0.15,0.1,1.14,,,
1142,-13.25,-2.67,35.54,-0.1,0.1,1.02,,,
1143,-15.22,-7.68,33.54,-0.06,0.07,0.91,,,
1144,-15.08,0.32,31.54,-0.06,0.08,0.95,,,
1145,-8.2,0.48,30.07,-0.01,0.07,1.03,,,
1146,2.8,-12.65,28.81,-0.01,0.02,0.82,,,
1147,9.56,-16.62,27,-0.07,0.02,0.89,,,
1148,10.8,-15.31,25.8,-0.05,-0.01,0.81,,,
1149,12.76,-11.74,25.55,-0.04,-0.02,0.8,,,
1150,13.4,-5.07,23.2,-0.03,0,0.81,,,
1151,11,-8.08,20.31,-0.05,-0.01,0.83,,,
1152,6.09,-7.65,17.65,-0.08,-0.01,0.83,,,
1153,-1.09,-2.71,15.17,-0.13,0.01,0.84,,,
1154,-8.74,-1.83,10.98,-0.17,-0.04,0.9,,,
1155,-11.39,1.33,9.73,-0.14,-0.11,0.85,,,
1156,-8.91,3.92,9.25,-0.16,-0.15,0.95,,,
1157,-4.45,4.25,9.62,-0.22,-0.15,1.04,,,
1158,1.67,0.38,10,-0.18,-0.15,1.02,,,
1159,4.24,-2.68,8.27,-0.2,-0.12,1.13,,,
1160,1.69,-3.26,5.88,-0.27,-0.06,1.23,,,
1161,-2.53,-0.1,2.88,-0.21,-0.03,1.24,,,
1162,-7.03,4.25,-0.16,-0.18,0.01,1.23,,,
1163,-10.28,6.18,-7.66,-0.21,0.03,1.26,,,
1164,-13.57,9.6,-14.19,-0.16,0.02,1.19,,,
1165,-14.86,11.75,-18.67,-0.16,-0.02,1.19,,,
1166,-16.49,14.39,-20.96,-0.13,-0.05,1.16,,,
1167,-15.97,19.45,-22.15,-0.17,-0.02,1.2,,,
1168,-10.38,21.23,-23.35,-0.21,0.06,1.15,,,
1169,-8.05,20.42,-25.98,-0.25,0.13,1.13,,,
1170,-13.05,22.55,-28.32,-0.21,0.12,0.98,,,
1171,-18.9,26.48,-28.79,-0.16,0.02,0.88,,,
1172,-15.8,26.84,-25.28,-0.12,-0.06,0.8,,,
1173,-1.12,16.27,-20.69,-0.11,-0.05,0.81,,,
1174,16.14,2.71,-19.1,-0.13,-0.03,0.81,,,
1175,28.8,-4.06,-20.38,-0.11,0,0.81,,,
1176,34.3,-13.83,-22.6,-0.1,0.02,0.81,,,
1177,34.15,-19.98,-26.38,-0.11,0,0.85,,,
1178,32.48,-23.65,-29.77,-0.12,-0.02,0.88,,,
1179,31.23,-27.2,-30.89,-0.09,-0.06,0.88,,,
1180,29.87,-28.55,-30.62,-0.09,-0.08,0.83,,,
1181,26.04,-28.97,-29.31,-0.08,-0.11,0.89,,,
1182,19.07,-28.87,-28.38,-0.09,-0.12,0.92,,,
1183,9.66,-24.91,-28.8,-0.06,-0.12,0.96,,,
1184,2.51,-18.05,-29.14,0,-0.09,0.95,,,
1185,-5.12,-11.56,-28.21,-0.03,-0.08,1.1,,,
1186,-8.1,-7.04,-24.61,-0.08,-0.1,1.21,,,
1187,-4.72,-5.73,-19.95,-0.09,-0.1,1.19,,,
1188,-0.96,-5.32,-13.4,-0.1,-0.1,1.21,,,
1189,2.35,-5.57,-4.89,-0.08,-0.11,1.22,,,
1190,5.2,-6.19,4.81,-0.08,-0.14,1.19,,,
1191,7.05,-5.25,13.9,-0.08,-0.17,1.19,,,
1192,8.35,-3.82,25.72,-0.01,-0.22,1.21,,,
1193,10.1,-3.58,36.29,0.01,-0.21,1.09,,,
1194,11.71,-1.07,47.22,-0.05,-0.11,1.22,,,
1195,13.99,4.13,55.88,-0.09,-0.02,1.25,,,
1196,16.88,8.4,59.36,-0.1,0.12,1.29,,,
1197,12.86,10.09,59.54,-0.06,0.14,1.23,,,
1198,5.21,11.48,58.87,-0.01,0.11,1.1,,,
1199,1.14,16.78,58.86,0.04,0.07,1,,,
1200,0.28,16.04,59.19,0.05,0.06,0.92,,,
1201,5.98,14.98,58.82,0.04,0.09,0.98,,,
1202,14.76,9.12,57.95,0.05,0.13,0.87,,,
1203,18.25,9.34,55.13,0,0.16,0.93,,,
1204,17.07,11.09,50.72,-0.04,0.17,0.95,,,
1205,13.78,12.72,44.31,-0.05,0.17,0.97,,,
1206,7.63,15.74,38.2,-0.08,0.11,0.91,,,
1207,2.49,21.34,32.81,-0.13,0.07,0.95,,,
1208,-1.05,23.14,27.67,-0.14,0.05,0.9,,,
1209,-5.15,23.33,22.69,-0.18,0.04,0.93,,,
1210,-6.91,22.89,18.1,-0.2,0.01,0.88,,,
1211,-9.86,20.72,14.04,-0.21,-0.02,0.89,,,
1212,-11.24,22.15,10.87,-0.22,-0.01,0.92,,,
1213,-12.6,19.29,8.49,-0.25,-0.02,0.98,,,
1214,-10.64,15.56,5.48,-0.26,0.02,1.03,,,
1215,-7.99,13.83,2.3,-0.26,0.04,1.07,,,
1216,-5.96,13.14,-1.22,-0.26,0.06,1.11,,,
1217,-4.49,12.27,-5.4,-0.26,0.07,1.13,,,
1218,-3.89,13.33,-10.19,-0.25,0.09,1.17,,,
1219,-2.53,13.99,-15.45,-0.25,0.11,1.16,,,
1220,-2.73,13.72,-21.15,-0.26,0.14,1.16,,,
1221,-3.61,13.75,-26.16,-0.25,0.13,1.14,,,
1222,-4.16,12.17,-29.1,-0.25,0.09,1.11,,,
1223,-2.85,8.83,-28.68,-0.23,0.06,1.06,,,
1224,1.26,5.18,-26.19,-0.23,0.08,1.08,,,
1225,7.21,0.87,-24.04,-0.24,0.17,1.13,,,
1226,10.3,-5.25,-23.92,-0.22,0.21,1.05,,,
1227,6.59,-9.77,-24.85,-0.18,0.15,0.96,,,
1228,0.75,-9.16,-24.66,-0.17,0.07,0.92,,,
1229,-0.46,-7.07,-24.51,-0.19,0.02,0.9,,,
1230,3.62,-9.79,-24.52,-0.19,0.03,0.9,,,
1231,8.96,-11.46,-26.2,-0.21,0.04,0.93,,,
1232,12.53,-11.42,-27.95,-0.22,0.05,0.89,,,
1233,14.04,-11.42,-30.89,-0.23,0.06,0.9,,,
1234,13.49,-10.38,-33.89,-0.23,0.05,0.89,,,
1235,11.93,-12.41,-36.59,-0.23,0.04,0.84,,,
1236,9.69,-12.8,-39.26,-0.21,0.01,0.84,,,
1237,8.47,-12.17,-40.64,-0.19,-0.02,0.8,,,
1238,8.2,-11.65,-41.81,-0.17,-0.03,0.84,,,
1239,10.01,-11.03,-42.55,-0.14,-0.06,0.89,,,
1240,10.6,-10.65,-41.72,-0.13,-0.07,0.92,,,
1241,7.3,-8.46,-39.28,-0.13,-0.05,1.04,,,
1242,1.25,-7.67,-36.09,-0.14,-0.02,1.1,,,
1243,-6.89,-7.38,-31.08,-0.14,0,1.15,,,
1244,-13.3,-3.42,-25.34,-0.12,-0.02,1.18,,,
1245,-16.35,0.35,-17.97,-0.11,-0.04,1.17,,,
1246,-14.34,1.39,-11.15,-0.1,-0.02,1.18,,,
1247,-11.85,2.38,-4.58,-0.1,-0.02,1.21,,,
1248,-11.31,5.84,0.95,-0.1,-0.03,1.19,,,
1249,-14.47,9.12,6.07,-0.1,-0.04,1.17,,,
1250,-18.15,12.12,10.42,-0.11,-0.06,1.17,,,
1251,-17.75,11.5,15.12,-0.12,-0.06,1.14,,,
1252,-13.18,7.54,20.01,-0.14,0,1.11,,,
1253,-6.33,4.24,21.71,-0.14,0.05,1.09,,,
1254,0.16,2.31,21.14,-0.14,0.08,1.06,,,
1255,4.51,1.73,18.88,-0.11,0.09,1.04,,,
1256,6.49,0.96,16.28,-0.1,0.08,1,,,
1257,8.06,1.64,15.14,-0.08,0.06,0.95,,,
1258,11.03,1.71,15,-0.07,0.04,0.93,,,
1259,15.39,-0.83,16.26,-0.07,0.04,0.9,,,
1260,19.71,-3.87,17.42,-0.09,0.05,0.91,,,
1261,22.19,-7.2,17.9,-0.11,0.07,0.91,,,
1262,21.1,-9.56,16.92,-0.11,0.07,0.9,,,
1263,16.29,-7.43,14.97,-0.1,0.05,0.86,,,
1264,10.5,-3.75,12.57,-0.11,0.02,0.87,,,
1265,6.62,-1.46,9.88,-0.13,0,0.89,,,
1266,2.41,1.09,8.3,-0.12,-0.03,0.88,,,
1267,-2.54,4.87,7.78,-0.12,-0.04,0.92,,,
1268,-6.93,7.09,8.35,-0.12,-0.07,0.91,,,
1269,-10.51,9.18,9.17,-0.14,-0.05,0.98,,,
1270,-12.28,10.71,10.24,-0.14,-0.05,0.97,,,
1271,-12.01,11.72,11.56,-0.16,-0.06,1.05,,,
1272,-10.93,11.29,13.12,-0.17,-0.04,1.05,,,
1273,-10.83,9.92,14.22,-0.19,0,1.09,,,
1274,-10.67,9.93,13.85,-0.18,0,1.12,,,
1275,-9.64,10.02,12.48,-0.18,0.01,1.12,,,
1276,-7.38,10,10.11,-0.2,0.05,1.14,,,
1277,-6,8.16,5.61,-0.22,0.1,1.16,,,
1278,-6.19,6.23,1.68,-0.24,0.11,1.15,,,
1279,-7.92,5.06,-1.97,-0.23,0.08,1.13,,,
1280,-10.48,2.31,-3.93,-0.22,0.04,1.1,,,
1281,-11.97,0.61,-4.63,-0.22,0.01,1.1,,,
1282,-9.07,0.4,-4.16,-0.24,0.02,1.15,,,
1283,-5.67,-2.95,-3.47,-0.25,0.1,1.14,,,
1284,-4.41,-4.29,-4.77,-0.26,0.16,1.1,,,
1285,-7.73,-3.14,-7.93,-0.25,0.13,1.03,,,
1286,-11.9,-1.36,-10.4,-0.24,0.07,0.98,,,
1287,-11.74,0.86,-10.38,-0.24,0.01,0.93,,,
1288,-6.07,2.21,-7.92,-0.24,-0.02,0.92,,,
1289,0.84,3.19,-5.75,-0.24,-0.01,0.9,,,
1290,7.14,3.04,-3.59,-0.23,0.03,0.93,,,
1291,11.57,0.83,-3.27,-0.23,0.08,0.92,,,
1292,12.34,0.8,-4.43,-0.21,0.09,0.92,,,
1293,11.84,1.61,-5.36,-0.19,0.06,0.88,,,
1294,10.31,1.54,-7.07,-0.19,0.05,0.9,,,
1295,9.84,0.1,-9.3,-0.17,0.04,0.84,,,
1296,9.33,-1.58,-11.61,-0.15,0.01,0.83,,,
1297,10.39,-2.3,-14.54,-0.13,-0.02,0.85,,,
1298,10.88,-5.1,-17.7,-0.15,-0.07,0.83,,,
1299,9.01,-9.18,-20.24,-0.15,-0.07,0.85,,,
1300,3.87,-12.27,-22.21,-0.14,-0.08,0.9,,,
1301,-2,-13.37,-24.5,-0.14,-0.07,0.96,,,
1302,-6.26,-13.86,-25.3,-0.13,-0.09,1.03,,,
1303,-8.2,-11.8,-23.3,-0.13,-0.12,1.12,,,
1304,-7.6,-9.74,-19.26,-0.14,-0.1,1.18,,,
1305,-6.22,-8.08,-14.09,-0.14,-0.1,1.2,,,
1306,-6.61,-4.52,-8.74,-0.12,-0.08,1.2,,,
1307,-7.62,0,-3.87,-0.12,-0.05,1.24,,,
1308,-10.7,3.07,0.2,-0.13,-0.04,1.24,,,
1309,-13.38,6.21,4.84,-0.12,-0.06,1.21,,,
1310,-14.33,7.59,10.52,-0.12,-0.04,1.16,,,
1311,-10.88,9.61,14.91,-0.13,0,1.2,,,
1312,-4.25,7.8,19.3,-0.18,0.06,1.2,,,
1313,-0.92,1.99,21.73,-0.21,0.09,1.16,,,
1314,-3.61,-0.4,23.21,-0.2,0.07,1.07,,,
1315,-7.47,1.8,24.38,-0.17,0.02,0.97,,,
1316,-8.06,5.48,26.13,-0.17,-0.02,0.96,,,
1317,0.16,5.56,28.39,-0.17,-0.02,1.01,,,
1318,13.77,1.71,31.33,-0.16,-0.01,0.97,,,
1319,23,-1.25,33.42,-0.18,0.06,0.99,,,
1320,23.64,-3.17,33.32,-0.18,0.09,0.91,,,
1321,17.72,-5.52,31.69,-0.17,0.07,0.84,,,
1322,14.24,0.21,29.6,-0.15,0.05,0.89,,,
1323,16.53,1.16,26.11,-0.14,0.01,0.83,,,
1324,20.4,1.73,24.39,-0.13,-0.02,0.84,,,
1325,22.14,7.18,21.76,-0.12,0,0.82,,,
1326,19.9,11.77,17.89,-0.16,0.02,0.83,,,
1327,14.49,14.37,13.52,-0.16,0.02,0.83,,,
1328,6.58,17.22,8.91,-0.18,0.02,0.87,,,
1329,-0.52,23.01,4.37,-0.27,0.02,0.89,,,
1330,-6.89,21.64,-1.41,-0.36,0.02,0.93,,,
1331,-9.8,17.16,-4.9,-0.41,-0.03,0.93,,,
1332,-9.38,11.61,-5.97,-0.4,-0.06,0.95,,,
1333,-7.75,7.05,-5.96,-0.41,-0.06,1.01,,,
1334,-5.86,3.42,-6.58,-0.37,-0.02,1.05,,,
1335,-5.2,0.26,-8.12,-0.32,0.02,1.08,,,
1336,-5.5,-1.11,-10.26,-0.28,0.04,1.13,,,
1337,-6.54,0.25,-13.28,-0.24,0.06,1.11,,,
1338,-7.86,3.54,-18.1,-0.22,0.09,1.2,,,
1339,-6.18,7.53,-21.16,-0.21,0.06,1.18,,,
1340,-3.08,11.16,-22.17,-0.24,0.08,1.22,,,
1341,1.52,15.45,-22.99,-0.29,0.11,1.24,,,
1342,4.18,16.37,-24.21,-0.33,0.19,1.2,,,
1343,7.98,15.86,-26.63,-0.35,0.27,1.18,,,
1344,11.53,11.09,-30.83,-0.34,0.34,1.14,,,
1345,11.67,0.41,-35.13,-0.33,0.33,1.01,,,
1346,9.86,-7.33,-38.65,-0.29,0.25,0.86,,,
1347,9.09,-5.51,-41.54,-0.25,0.17,0.8,,,
1348,12.46,-3.87,-44.44,-0.26,0.11,0.83,,,
1349,22.36,-6.88,-45.95,-0.29,0.07,0.93,,,
1350,33.99,-14.1,-46.7,-0.31,0.09,0.86,,,
1351,38.55,-19.64,-48.08,-0.3,0.09,0.82,,,
1352,31.43,-19.83,-48.36,-0.3,0.06,0.81,,,
1353,19.94,-21.27,-47.64,-0.32,0.05,0.87,,,
1354,14.76,-23.54,-46.38,-0.28,0,0.86,,,
1355,14.98,-27,-45.6,-0.25,-0.03,0.87,,,
1356,18.56,-27.42,-44.75,-0.23,-0.06,0.88,,,
1357,20.42,-25.86,-44.35,-0.22,-0.06,0.89,,,
1358,17.85,-24.41,-43.12,-0.22,-0.06,0.9,,,
1359,12.36,-23.05,-41.71,-0.24,-0.04,0.89,,,
1360,6.58,-21.75,-40.23,-0.23,-0.01,0.93,,,
1361,2.72,-20.76,-38.42,-0.2,0,1,,,
1362,2.07,-21.07,-37.25,-0.16,0,0.97,,,
1363,2.34,-18.69,-37.8,-0.13,0.02,0.98,,,
1364,2.96,-14.94,-39.17,-0.14,0.02,1.05,,,
1365,3.11,-19.87,-36.74,-0.16,-0.01,1.01,,,
1366,4.07,-28.95,-33.22,-0.21,0,1.07,,,
1367,0.5,-26.73,-27.4,-0.16,-0.01,1.18,,,
1368,0.57,-26.29,-20.67,-0.14,-0.04,1.2,,,
1369,1.85,-22.06,-16.03,-0.13,-0.04,1.28,,,
1370,5.04,-9.98,-12.99,-0.11,0,1.36,,,
1371,9.11,-2.08,-9.45,-0.12,0.04,1.36,,,
1372,11.56,2.42,-7.14,-0.18,0.14,1.42,,,
1373,8.49,2.84,-5.14,-0.19,0.2,1.35,,,
1374,-1.99,-6.22,-4.48,-0.2,0.19,1.21,,,
1375,-5.7,13.5,-4.54,-0.15,0.19,1.11,,,
1376,-11.15,13.53,-5.12,-0.11,0.13,0.93,,,
1377,-15.89,9.23,-5.7,-0.16,0.12,0.9,,,
1378,-13.45,16.57,-6.77,-0.16,0.09,0.89,,,
1379,-6.36,17.78,-6.58,-0.14,0.09,0.84,,,
1380,5.18,18.45,-5.95,-0.15,0.11,0.91,,,
1381,10.69,3.32,-5.48,-0.19,0.11,0.82,,,
1382,14.21,-0.72,-5.31,-0.21,0.14,0.9,,,
1383,13.72,1.62,-8.04,-0.22,0.17,0.86,,,
1384,6.72,1,-10.79,-0.23,0.16,0.85,,,
1385,-3.85,7.17,-15.61,-0.25,0.16,1.03,,,
1386,-6.82,12.16,-19.93,-0.25,0.11,0.95,,,
1387,-6.3,10.63,-23.31,-0.26,0.07,0.92,,,
1388,-3.94,9.33,-26.85,-0.27,0.03,0.93,,,
1389,-0.86,11.29,-29.12,-0.26,0,0.89,,,
1390,0.08,12.87,-31.48,-0.25,0,0.9,,,
1391,-0.78,9.84,-34.02,-0.28,0.03,0.93,,,
1392,-4.28,7.67,-38.14,-0.29,0.07,0.97,,,
1393,-8.28,6.9,-43.77,-0.29,0.08,1.01,,,
1394,-10.61,6.79,-49.35,-0.29,0.06,1.03,,,
1395,-10.78,6.25,-55.48,-0.28,0.07,1.1,,,
1396,-9.61,7.13,-60.81,-0.27,0.08,1.12,,,
1397,-8.04,7.19,-66.24,-0.27,0.11,1.15,,,
1398,-7.48,6.11,-70.82,-0.27,0.1,1.14,,,
1399,-6.38,6.54,-74.48,-0.25,0.05,1.17,,,
1400,-4.13,4.21,-75.76,-0.25,-0.01,1.14,,,
1401,2.49,3.36,-76.63,-0.25,-0.05,1.18,,,
1402,13.43,6.54,-78.23,-0.3,0.01,1.31,,,
1403,20.01,6.37,-82.41,-0.35,0.14,1.33,,,
1404,17.39,7.48,-89.55,-0.31,0.24,1.21,,,
1405,2.55,10.79,-97.81,-0.29,0.25,1.05,,,
1406,-14.34,13.43,-105.14,-0.27,0.2,0.96,,,
1407,-18.02,15.35,-108.89,-0.22,0.08,0.82,,,
1408,-9.67,18.13,-107.77,-0.21,0.01,0.93,,,
1409,9.2,17.22,-103.96,-0.22,-0.03,0.91,,,
1410,28.36,11.28,-98.64,-0.28,-0.02,0.91,,,
1411,42.09,3.54,-92.1,-0.33,0.07,0.92,,,
1412,38.39,0.94,-88.74,-0.32,0.17,1.02,,,
1413,26.72,0.29,-87.88,-0.33,0.19,0.97,,,
1414,16.3,4.87,-86.5,-0.32,0.14,0.94,,,
1415,11.53,8.15,-85.75,-0.29,0.06,0.93,,,
1416,14.55,11.06,-82.84,-0.25,-0.02,0.86,,,
1417,22.64,7.98,-78.58,-0.23,-0.08,0.77,,,
1418,29.6,5.27,-74.99,-0.22,-0.09,0.79,,,
1419,33.43,5.59,-72.29,-0.21,-0.07,0.78,,,
1420,31.01,6.96,-71.03,-0.2,-0.06,0.89,,,
1421,24.74,5.51,-70.63,-0.21,-0.07,0.88,,,
1422,16.26,6.59,-70.34,-0.2,-0.04,0.97,,,
1423,10.43,8.65,-69.74,-0.16,-0.08,0.97,,,
1424,9.43,8.38,-67.1,-0.14,-0.12,0.99,,,
1425,12.61,6.66,-63.22,-0.13,-0.12,1.02,,,
1426,17.13,4.58,-57.71,-0.13,-0.11,1.05,,,
1427,18.94,1.91,-52.4,-0.12,-0.07,1.06,,,
1428,16.34,-0.58,-46.96,-0.11,-0.05,1.06,,,
1429,12.44,-2.84,-40.24,-0.12,-0.06,1.12,,,
1430,10.34,-5.04,-32.82,-0.13,-0.06,1.16,,,
1431,10.42,-10.08,-24.24,-0.13,-0.07,1.12,,,
1432,10.31,-16,-16.54,-0.13,-0.05,1.11,,,
1433,12.45,-17.33,-9.51,-0.11,-0.03,1.12,,,
1434,16.49,-19.01,-5.19,-0.12,0.03,1.18,,,
1435,18.3,-22.35,-3.83,-0.12,0.1,1.17,,,
1436,14.54,-21.52,-4.79,-0.1,0.13,1.11,,,
1437,8.2,-15.53,-6.32,-0.07,0.1,1.01,,,
1438,1.07,-8.7,-7.19,-0.1,0.05,1.03,,,
1439,1.42,-4.65,-6.28,-0.1,0,1,,,
1440,4.75,-2.54,-3.48,-0.1,-0.04,1,,,
1441,8.34,-2.97,0.53,-0.12,-0.05,1,,,
1442,10.03,-2.3,4.22,-0.15,-0.01,1,,,
1443,9.48,0.12,6.8,-0.17,0.04,1.02,,,
1444,7.49,0.85,7.46,-0.18,0.04,0.98,,,
1445,3.38,3.11,7.23,-0.21,0.06,1.01,,,
1446,2.17,5.44,5.82,-0.21,0.06,0.98,,,
1447,3.16,7.12,3.68,-0.21,0.05,0.98,,,
1448,5.11,8.45,1.52,-0.2,0.02,0.96,,,
1449,7.82,9.02,-0.57,-0.2,-0.01,0.96,,,
1450,8.13,10,-3.09,-0.2,0,0.94,,,
1451,5.33,8.54,-5.57,-0.24,0,0.93,,,
1452,1.66,6.74,-7.69,-0.26,-0.01,0.95,,,
1453,-1.53,7.35,-9.92,-0.26,-0.02,0.97,,,
1454,-4.15,6.67,-12.07,-0.29,-0.02,1.02,,,
1455,-4.68,5.8,-13.71,-0.29,-0.01,1.04,,,
1456,-4.99,6.53,-16.22,-0.3,0,1.07,,,
1457,-5.11,7.61,-18.41,-0.31,0.02,1.11,,,
1458,-5.18,8.35,-21.75,-0.33,0.03,1.13,,,
1459,-5.48,8.95,-24.77,-0.33,0.04,1.14,,,
1460,-6.58,9.08,-27.94,-0.33,0.04,1.14,,,
1461,-6.31,9.58,-29.35,-0.33,0.01,1.11,,,
1462,-5.47,7.55,-30.69,-0.33,-0.01,1.14,,,
1463,-4.37,5,-30.61,-0.33,0,1.15,,,
1464,0.79,7.16,-30.02,-0.32,0.03,1.16,,,
1465,4.83,6.33,-30.56,-0.35,0.12,1.2,,,
1466,8.38,3.78,-32.24,-0.36,0.2,1.19,,,
1467,6.82,0.51,-36.69,-0.34,0.22,1.06,,,
1468,-0.31,-2.11,-41.58,-0.3,0.18,0.95,,,
1469,-1.44,2.03,-45.99,-0.25,0.1,0.84,,,
1470,0.31,1.61,-46.32,-0.27,0.03,0.83,,,
1471,4.42,-7.33,-46.03,-0.29,0.03,0.82,,,
1472,9.96,-12.74,-44.36,-0.27,0.05,0.85,,,
1473,13.12,-12.54,-44.3,-0.27,0.09,0.86,,,
1474,12.78,-14.58,-44.44,-0.25,0.12,0.85,,,
1475,7.98,-15.14,-45.03,-0.27,0.17,0.94,,,
1476,3.66,-17.27,-45.61,-0.26,0.16,0.92,,,
1477,-0.44,-18.1,-47.64,-0.23,0.14,0.88,,,
1478,-1.99,-15.98,-49.13,-0.22,0.07,0.84,,,
1479,-0.67,-16.87,-48.96,-0.21,0.02,0.85,,,
1480,0.39,-19.25,-48.38,-0.2,-0.02,0.83,,,
1481,-0.47,-20.39,-46.96,-0.18,-0.03,0.84,,,
1482,-3.47,-20.88,-46.03,-0.19,-0.01,0.86,,,
1483,-6.51,-18.55,-44.15,-0.17,-0.01,0.93,,,
1484,-5.68,-15.51,-41.49,-0.16,0,0.98,,,
1485,-2.94,-16.97,-37.49,-0.18,0.03,1.01,,,
1486,1.07,-17.13,-33.8,-0.18,0.04,1.04,,,
1487,5.18,-14.6,-29.77,-0.16,0,1.05,,,
1488,9.19,-14.27,-24.95,-0.14,0.02,1.04,,,
1489,12.49,-14.65,-20.54,-0.11,0.04,1.04,,,
1490,15.66,-10.55,-17.3,-0.09,0.04,1.02,,,
1491,15.98,-8.43,-15.59,-0.09,0.05,1.06,,,
1492,19.54,-4.82,-14.51,-0.11,0.05,1.1,,,
1493,23.24,-2.58,-11.53,-0.12,0.05,1.09,,,
1494,26.66,-3.18,-7.95,-0.16,0.07,1.12,,,
1495,27.82,-6.84,-5.66,-0.16,0.08,1.1,,,
1496,26.5,-8.76,-3.94,-0.14,0.05,1.08,,,
1497,22.62,-7.09,-2.12,-0.1,0.03,1.06,,,
1498,19.55,-6.1,-1.38,-0.08,0.01,1.01,,,
1499,20.73,-0.62,-0.3,-0.08,0.01,1.05,,,
1500,23.49,4.19,-0.12,-0.12,0.08,1.12,,,
1501,24.94,3.74,-0.42,-0.14,0.13,1.13,,,
1502,20.89,4.13,-0.87,-0.14,0.12,1.09,,,
1503,14.11,9.17,-2.34,-0.15,0.1,1.03,,,
1504,9.22,14.18,-3.94,-0.16,0.1,1.04,,,
1505,9.04,15.84,-6.33,-0.18,0.08,1.03,,,
1506,10.73,16.75,-8.09,-0.18,0.06,0.99,,,
1507,7.16,17.82,-9.66,-0.17,0.05,0.95,,,
1508,0.65,19.2,-10.72,-0.17,0.05,0.89,,,
1509,-7.09,19.37,-12.12,-0.17,0.06,0.91,,,
1510,-11.38,17.92,-13.26,-0.18,0.04,0.94,,,
1511,-12.02,16.01,-15.26,-0.17,0.05,0.95,,,
1512,-12.4,14.93,-18.33,-0.19,0.05,0.96,,,
1513,-13.64,13.12,-21.26,-0.19,0.05,0.99,,,
1514,-15.26,10.88,-25.45,-0.2,0.07,1.01,,,
1515,-15.96,9.84,-30.41,-0.21,0.08,1.05,,,
1516,-14.68,8.13,-35.92,-0.23,0.12,1.1,,,
1517,-10.25,7.66,-43,-0.24,0.14,1.16,,,
1518,-5.19,6.86,-49.87,-0.26,0.18,1.19,,,
1519,-2.06,4.03,-56.9,-0.27,0.21,1.18,,,
1520,-1.23,2.44,-63.64,-0.26,0.21,1.15,,,
1521,-0.79,1.29,-69.24,-0.25,0.18,1.1,,,
1522,1.26,-0.61,-72.79,-0.25,0.1,1.12,,,
1523,9.11,-2.51,-72.64,-0.26,0.03,1.12,,,
1524,21.26,-2.45,-72.31,-0.26,0.11,1.13,,,
1525,25.25,-3.97,-74.94,-0.29,0.23,1.15,,,
1526,20.24,-5.67,-78.61,-0.29,0.23,1.07,,,
1527,9.25,-2.26,-81.42,-0.25,0.15,0.95,,,
1528,-2.19,0.73,-80.74,-0.22,0.03,0.86,,,
1529,-1.83,2.51,-76.1,-0.23,-0.05,0.88,,,
1530,5.68,2.62,-68.42,-0.2,-0.07,0.86,,,
1531,14.48,-0.5,-60.39,-0.21,-0.05,0.86,,,
1532,18.51,-2.55,-53.25,-0.22,0.02,0.92,,,
1533,14.74,-3.12,-48.26,-0.22,0.08,0.91,,,
1534,7.17,-3.32,-45.26,-0.2,0.1,0.92,,,
1535,0.72,-4.58,-43.67,-0.18,0.08,0.87,,,
1536,-2.67,-5.44,-42.61,-0.17,0.04,0.84,,,
1537,-0.55,-4,-42.12,-0.17,0,0.86,,,
1538,3.5,-6,-41.51,-0.16,-0.01,0.82,,,
1539,6.15,-4.58,-41.96,-0.16,0.02,0.91,,,
1540,6.14,-4.29,-42.54,-0.14,0.04,0.91,,,
1541,1.41,-6.75,-44.33,-0.15,0.07,0.97,,,
1542,-3.58,-6.35,-46.86,-0.14,0.07,0.98,,,
1543,-6.86,-6.21,-47.51,-0.13,0.05,1,,,
1544,-5.51,-5.2,-47.12,-0.12,0.03,1.04,,,
1545,-0.44,-6.3,-45.19,-0.12,0.01,1.05,,,
1546,4.21,-8.39,-41.3,-0.11,0,1.06,,,
1547,6.57,-8.82,-36.48,-0.09,-0.01,1.04,,,
1548,7.24,-10,-31.06,-0.1,0.02,1.09,,,
1549,7.72,-10.74,-25.93,-0.1,0.01,1.13,,,
1550,9.36,-9.91,-19.77,-0.09,-0.02,1.13,,,
1551,11.66,-9.89,-12.67,-0.08,-0.04,1.13,,,
1552,14.16,-10.34,-5.41,-0.08,-0.04,1.13,,,
1553,17.01,-10.61,-0.28,-0.1,0,1.11,,,
1554,21.42,-10.91,2.87,-0.13,0.08,1.14,,,
1555,27.17,-10.52,3.73,-0.14,0.12,1.16,,,
1556,28.78,-10.95,3.75,-0.12,0.11,1.11,,,
1557,25.39,-7.97,4.06,-0.1,0.07,1.06,,,
1558,21.35,0.1,5.1,-0.09,0.05,1.02,,,
1559,17.05,2.51,7.78,-0.11,0.04,1,,,
1560,17.6,6.33,11.02,-0.12,0.06,1.02,,,
1561,18.83,7.08,14.22,-0.13,0.08,1.03,,,
1562,17.33,6.39,15.93,-0.13,0.13,1.04,,,
1563,16.1,4.31,17.77,-0.12,0.12,0.9,,,
1564,8.57,7.06,19.16,-0.12,0.11,0.88,,,
1565,2.81,9.04,19,-0.14,0.13,0.88,,,
1566,-0.31,9.42,17.49,-0.14,0.12,0.91,,,
1567,0.07,10.24,16.25,-0.12,0.09,0.89,,,
1568,0.78,10.87,14.79,-0.13,0.08,0.95,,,
1569,-0.54,12.07,12.91,-0.15,0.08,0.93,,,
1570,-5.15,13.44,10.34,-0.16,0.08,0.95,,,
1571,-10.3,17.46,7.3,-0.16,0.08,0.99,,,
1572,-14.06,16.54,4.04,-0.18,0.06,1,,,
1573,-15.82,13.25,1.17,-0.22,0.04,1.06,,,
1574,-14.9,9.61,-0.97,-0.23,0.03,1.04,,,
1575,-13.91,5.75,-3.02,-0.24,0.04,1.05,,,
1576,-12.97,3.45,-5.77,-0.25,0.05,1.08,,,
1577,-12.03,1.35,-9.33,-0.26,0.08,1.12,,,
1578,-11.25,-1.52,-13.77,-0.27,0.11,1.17,,,
1579,-11.46,-4.88,-18.54,-0.28,0.15,1.19,,,
1580,-14.15,-5.59,-23.16,-0.26,0.13,1.18,,,
1581,-17.04,-5.28,-27.56,-0.24,0.11,1.16,,,
1582,-16.87,-4.1,-30.27,-0.22,0.09,1.15,,,
1583,-8.83,-1.62,-32.28,-0.23,0.11,1.22,,,
1584,2.04,-1.92,-34.51,-0.26,0.17,1.2,,,
1585,6.54,-0.99,-38.9,-0.26,0.33,1.19,,,
1586,1.2,-2.54,-44.58,-0.25,0.28,1.02,,,
1587,-11.09,-2.84,-49.03,-0.22,0.2,0.91,,,
1588,-13.23,1.85,-49.83,-0.18,0.09,0.77,,,
1589,-6.5,-1.4,-46.97,-0.19,0.02,0.79,,,
1590,6.24,-4.52,-44.03,-0.22,0.06,0.84,,,
1591,18.96,-6.91,-41.83,-0.23,0.1,0.9,,,
1592,23.28,-8.04,-40.76,-0.23,0.14,0.88,,,
1593,17.41,-8.03,-40.48,-0.21,0.15,0.83,,,
1594,5.9,-4.61,-40.19,-0.22,0.12,0.9,,,
1595,-1.2,-2.63,-39.73,-0.2,0.09,0.91,,,
1596,-0.57,-5.45,-40.07,-0.17,0.03,0.84,,,
1597,3.4,-8.55,-39.77,-0.15,-0.03,0.85,,,
1598,8.31,-9.65,-39.21,-0.11,-0.06,0.83,,,
1599,7.76,-10.81,-39.59,-0.11,-0.07,0.84,,,
1600,2.77,-12.5,-39.57,-0.11,-0.07,0.91,,,
1601,-2.73,-11.69,-39.35,-0.1,-0.05,0.97,,,
1602,-6.12,-11.2,-37.16,-0.1,-0.06,1.04,,,
1603,-6.14,-12.33,-33.86,-0.12,-0.06,1.12,,,
1604,-2.72,-12,-29.35,-0.13,-0.06,1.16,,,
1605,1.6,-9.07,-24.98,-0.13,-0.05,1.19,,,
1606,2.73,-7.19,-19.87,-0.13,-0.03,1.17,,,
1607,0.45,-6.94,-15.01,-0.12,0.01,1.16,,,
1608,-2.53,-6.64,-9.71,-0.1,0.01,1.13,,,
1609,-4.28,-5.42,-3.84,-0.09,-0.02,1.15,,,
1610,-2.2,-4.83,3.52,-0.08,-0.03,1.15,,,
1611,0.39,-5.15,10.62,-0.08,0,1.16,,,
1612,3.2,-1.77,15.76,-0.09,0.08,1.17,,,
1613,5.18,-1.84,18.73,-0.12,0.17,1.2,,,
1614,4.04,-3.16,19.44,-0.11,0.2,1.19,,,
1615,0.55,-2.26,19.44,-0.07,0.18,1.1,,,
1616,0.35,1.85,19.65,-0.04,0.13,1.03,,,
1617,3.48,6.67,20.42,-0.05,0.11,1.04,,,
1618,9.25,6.02,21.92,-0.05,0.1,1,,,
1619,14.46,5.03,24.49,-0.05,0.09,0.98,,,
1620,17.28,7.48,26.96,-0.06,0.12,1,,,
1621,16.66,7.93,26.4,-0.09,0.17,1.02,,,
1622,14.06,8.05,23.76,-0.1,0.18,1.02,,,
1623,6.12,7.35,20.34,-0.12,0.13,0.99,,,
1624,2.62,15.07,17.5,-0.06,0.11,0.95,,,
1625,1.08,18.92,15.87,-0.07,0.05,0.81,,,
1626,-1.34,19.91,14.3,-0.1,0.02,0.86,,,
1627,0.3,21.87,13.39,-0.13,0.01,0.88,,,
1628,0.53,22.65,12.19,-0.13,0.01,0.9,,,
1629,-1.39,22.79,10.25,-0.13,0.02,0.91,,,
1630,-5.76,23.04,7.13,-0.16,0.03,0.93,,,
1631,-12.16,25.14,3.26,-0.17,0.04,0.99,,,
1632,-15.57,25.25,-0.03,-0.17,0.01,0.98,,,
1633,-14.93,22.63,-1.56,-0.19,-0.02,1.02,,,
1634,-11.11,17.46,-2.84,-0.21,0.01,1.06,,,
1635,-7.02,14.25,-4.7,-0.22,0.05,1.09,,,
1636,-4.76,13.27,-8.1,-0.23,0.1,1.12,,,
1637,-4.84,12.47,-11.93,-0.22,0.11,1.14,,,
1638,-4.77,12.8,-15.8,-0.23,0.14,1.18,,,
1639,-5.25,12.5,-20.61,-0.23,0.16,1.18,,,
1640,-6.73,11.2,-24.56,-0.22,0.12,1.16,,,
1641,-8.59,11.48,-28.25,-0.2,0.08,1.13,,,
1642,-6.82,13.29,-31.09,-0.21,0.05,1.13,,,
1643,1.88,14.35,-31.53,-0.23,0.02,1.16,,,
1644,10.83,9.39,-30.7,-0.28,0.1,1.19,,,
1645,12.86,3.27,-31.93,-0.3,0.2,1.13,,,
1646,1.53,-2.42,-35.16,-0.28,0.21,0.96,,,
1647,-15.45,-3.36,-38.74,-0.23,0.14,0.88,,,
1648,-21.58,-4.09,-38.32,-0.17,0,0.73,,,
1649,-13.28,-8.73,-34.69,-0.17,-0.06,0.83,,,
1650,4.98,-11.78,-28.87,-0.18,-0.05,0.86,,,
1651,21.11,-17.76,-24.07,-0.19,0.01,0.86,,,
1652,22.37,-22.17,-22.6,-0.2,0.1,0.87,,,
1653,10.82,-22.55,-24.07,-0.19,0.12,0.89,,,
1654,-1.03,-17.57,-23.85,-0.15,0.06,0.89,,,
1655,-5.41,-17.07,-22.74,-0.13,0.01,0.92,,,
1656,-1.03,-18.2,-20.19,-0.11,-0.05,0.86,,,
1657,5.25,-19.82,-17.61,-0.11,-0.08,0.87,,,
1658,10.05,-18.18,-14.77,-0.11,-0.09,0.87,,,
1659,9.24,-15.52,-12.97,-0.12,-0.09,0.88,,,
1660,4.08,-13.2,-12.42,-0.14,-0.07,0.96,,,
1661,-1.73,-11.67,-11.22,-0.16,-0.04,1.01,,,
1662,-4.28,-9.75,-10.06,-0.16,-0.04,1.04,,,
1663,-1.06,-10.65,-7.26,-0.14,-0.06,1.07,,,
1664,3.94,-13.67,-3.31,-0.15,-0.05,1.13,,,
1665,7.2,-13.87,0.55,-0.13,-0.05,1.13,,,
1666,7.47,-12.1,4.72,-0.12,-0.03,1.16,,,
1667,3.81,-10,7.67,-0.12,0.01,1.21,,,
1668,-1.34,-7.87,9.02,-0.1,0.02,1.18,,,
1669,-7.57,-5.72,9.88,-0.09,0.02,1.17,,,
1670,-13.73,-4.33,11.26,-0.08,-0.02,1.12,,,
1671,-16.9,-4.34,15.66,-0.06,-0.05,1.1,,,
1672,-15.59,-5.42,21.18,-0.05,-0.06,1.1,,,
1673,-9.14,-7.14,26.84,-0.06,-0.01,1.1,,,
1674,-3.93,-8.91,28.43,-0.1,0.1,1.18,,,
1675,-1.42,-6.9,27.2,-0.1,0.16,1.16,,,
1676,-2.71,-3.85,25.75,-0.08,0.12,1.1,,,
1677,-3.54,1.66,24.96,-0.05,0.07,1.07,,,
1678,-1.47,4.54,26.28,-0.06,0.03,1,,,
1679,3.92,5.68,28.56,-0.07,0,0.96,,,
1680,11.09,5.46,32.39,-0.1,-0.02,0.91,,,
1681,16.9,4.86,36.01,-0.11,-0.02,0.87,,,
1682,19.85,7.37,37.72,-0.14,0,0.89,,,
1683,20.45,8.85,37.29,-0.15,0.05,0.87,,,
1684,17.98,9.65,34.39,-0.17,0.1,0.91,,,
1685,11.96,8.99,29.97,-0.18,0.12,0.94,,,
1686,8.7,12.42,25.26,-0.17,0.09,0.85,,,
1687,5.43,16.64,21.25,-0.18,0.07,0.82,,,
1688,3.2,19.77,17.44,-0.2,0.04,0.86,,,
1689,2.36,19.48,14.04,-0.21,0.03,0.86,,,
1690,2,20.15,11.39,-0.23,0.02,0.9,,,
1691,-1.02,21.01,7.77,-0.27,0.03,0.95,,,
1692,-5.49,19.82,4.08,-0.29,0.03,1.02,,,
1693,-10.05,16.84,-0.06,-0.29,0.02,1.02,,,
1694,-13.64,14.05,-3.94,-0.3,0.02,1.08,,,
1695,-14.25,11,-8.38,-0.29,0,1.13,,,
1696,-11.74,10.06,-12.88,-0.29,0.01,1.19,,,
1697,-8.31,8.77,-18.94,-0.3,0.06,1.23,,,
1698,-5.66,8.19,-25.91,-0.32,0.13,1.25,,,
1699,-5.75,8.23,-32.99,-0.32,0.15,1.23,,,
1700,-7.94,9.03,-40.36,-0.31,0.15,1.19,,,
1701,-9.06,8.58,-47.09,-0.29,0.12,1.13,,,
1702,-3.64,7.27,-51.8,-0.28,0.09,1.08,,,
1703,8.3,4.21,-55.07,-0.29,0.11,1.1,,,
1704,19.64,-0.54,-58.83,-0.29,0.2,1.07,,,
1705,20.78,-6.87,-63.92,-0.28,0.22,0.96,,,
1706,14.71,-7.75,-68.73,-0.24,0.15,0.85,,,
1707,10.21,-3.94,-69.55,-0.24,0.08,0.86,,,
1708,15.66,-5.36,-67.27,-0.24,0.01,0.83,,,
1709,28.19,-8.68,-61.48,-0.24,-0.02,0.83,,,
1710,40.17,-11.54,-55.38,-0.25,0.03,0.85,,,
1711,45.63,-13.89,-51.9,-0.26,0.08,0.9,,,
1712,46.68,-13.62,-49.89,-0.22,0.08,0.93,,,
1713,44.08,-13.12,-48.44,-0.19,0.04,0.89,,,
1714,41.23,-12.52,-46.43,-0.17,0.01,0.92,,,
1715,39.75,-9.91,-44.83,-0.16,-0.04,0.97,,,
1716,40.8,-12.77,-43.42,-0.14,-0.06,0.92,,,
1717,38.52,-14.12,-42.61,-0.12,-0.02,0.97,,,
1718,30.33,-10.34,-41.78,-0.12,0.03,1.06,,,
1719,23.07,-10.04,-40.16,-0.1,0.01,0.98,,,
1720,15.82,-10.28,-37.54,-0.12,0.02,1.04,,,
1721,11.02,-10.94,-33.04,-0.13,0.03,1.04,,,
1722,5.82,-11.49,-26.9,-0.12,0.04,1.06,,,
1723,0.27,-10.7,-20.13,-0.12,0.05,1.08,,,
1724,-4.6,-12.44,-12.32,-0.12,0.08,1.08,,,
1725,-9.31,-14.3,-4.21,-0.11,0.11,1.1,,,
1726,-14.15,-14.12,3.16,-0.09,0.17,1.1,,,
1727,-18.79,-12.66,8.94,-0.08,0.18,1.09,,,
1728,-21.51,-9.12,14.66,-0.05,0.16,1.08,,,
1729,-19.96,-4.28,20.39,-0.04,0.15,1.07,,,
1730,-14.9,-2.07,25.77,-0.06,0.17,1.11,,,
1731,-7.29,-2.46,29.24,-0.07,0.26,1.14,,,
1732,-1.61,-4.13,30.01,-0.07,0.31,1.12,,,
1733,-2.64,-6.23,28.3,-0.05,0.28,1.05,,,
1734,-5.06,-9.72,25.71,-0.07,0.2,0.95,,,
1735,-1.27,-0.1,24.42,-0.02,0.17,0.99,,,
1736,6.42,3.98,23.39,-0.03,0.17,1.01,,,
1737,14.95,3.19,22.59,-0.08,0.21,1.09,,,
1738,20.33,5.51,21.54,-0.1,0.24,1.08,,,
1739,18.14,8.19,22.04,-0.12,0.23,1.05,,,
1740,11.89,7.19,23.23,-0.13,0.21,0.99,,,
1741,7.33,6.36,24.3,-0.13,0.19,1,,,
1742,7.37,9.32,24.09,-0.12,0.16,0.98,,,
1743,10.05,10.21,23.84,-0.12,0.12,0.98,,,
1744,10.9,11.45,22.16,-0.12,0.1,0.92,,,
1745,8.78,18.44,20.92,-0.13,0.09,0.91,,,
1746,2.41,22.45,19.49,-0.14,0.1,0.95,,,
1747,-6.02,21.38,17.68,-0.16,0.08,0.98,,,
1748,-14.03,23.13,15.93,-0.16,0.06,0.98,,,
1749,-19.86,23.27,13.47,-0.17,0.02,0.96,,,
1750,-22.31,22.83,10.26,-0.16,-0.02,0.95,,,
1751,-20.6,26.11,7.62,-0.16,-0.04,0.97,,,
1752,-17.15,24.79,4.89,-0.18,-0.01,1.04,,,
1753,-14.3,19.74,2.42,-0.21,0.03,1.04,,,
1754,-14,14.64,-0.74,-0.23,0.05,1.09,,,
1755,-13.7,11.66,-4.39,-0.23,0.07,1.11,,,
1756,-11.41,9.17,-7.8,-0.23,0.09,1.15,,,
1757,-7.68,6.7,-11.65,-0.23,0.12,1.18,,,
1758,-3.15,4.98,-15.31,-0.22,0.12,1.17,,,
1759,-1.55,-0.19,-18.52,-0.21,0.11,1.16,,,
1760,-2.34,-2.65,-20.61,-0.2,0.08,1.15,,,
1761,-4.86,-5.85,-21.23,-0.2,0.05,1.12,,,
1762,-4.75,-0.33,-21.13,-0.19,0.1,1.15,,,
1763,-4.56,3.51,-22.03,-0.23,0.2,1.26,,,
1764,-5.73,-0.8,-25.47,-0.26,0.23,1.13,,,
1765,-13.02,-3.87,-28.24,-0.19,0.16,0.97,,,
1766,-20.02,3.67,-28.22,-0.14,0.08,0.88,,,
1767,-18.98,10.89,-25.48,-0.15,0.04,0.87,,,
1768,-9.7,4.6,-21.08,-0.18,0.07,0.9,,,
1769,1.62,-3.54,-17.85,-0.2,0.12,0.91,,,
1770,9.42,-8.78,-17.51,-0.22,0.18,0.96,,,
1771,10.94,-11.34,-19.42,-0.19,0.16,0.89,,,
1772,6.36,-13.32,-21.21,-0.16,0.11,0.86,,,
1773,4.37,-11,-22.37,-0.16,0.08,0.84,,,
1774,5.84,-10.28,-22.22,-0.15,0.05,0.8,,,
1775,9.34,-16.48,-22.03,-0.13,0.03,0.81,,,
1776,13.9,-20.71,-22.54,-0.11,0.02,0.81,,,
1777,14.14,-21.88,-23.03,-0.1,0,0.82,,,
1778,10.36,-22.68,-22.61,-0.1,0,0.87,,,
1779,3.83,-21.46,-22.45,-0.1,0.01,0.94,,,
1780,-1.5,-18.82,-21.54,-0.08,0,0.98,,,
1781,-4.29,-16.4,-20.09,-0.07,0,1.04,,,
1782,-3.67,-15.15,-16.82,-0.06,-0.01,1.06,,,
1783,-2.46,-14.36,-11.04,-0.06,-0.02,1.12,,,
1784,-2.56,-13.54,-3.9,-0.05,-0.02,1.11,,,
1785,-4.76,-13.66,3.36,-0.04,0.01,1.13,,,
1786,-6.47,-12.59,7.91,-0.05,0.03,1.18,,,
1787,-8,-10.52,12.13,-0.04,0.03,1.16,,,
1788,-9.77,-8.72,17.53,-0.02,0.01,1.13,,,
1789,-10.12,-7.75,23.72,-0.02,0,1.11,,,
1790,-6.96,-6.88,30.45,-0.04,0.03,1.14,,,
1791,0.44,-6.16,35.03,-0.06,0.09,1.18,,,
1792,7.6,-7.78,37.71,-0.08,0.15,1.19,,,
1793,9.36,-8.67,37.78,-0.07,0.16,1.12,,,
1794,5.59,-5.2,36.46,-0.05,0.12,1.03,,,
1795,2.07,1.26,35.48,-0.04,0.09,0.98,,,
1796,4.33,7.96,36.46,-0.05,0.06,1,,,
1797,11.51,10.55,38.52,-0.07,0.05,1.02,,,
1798,20.17,9.55,41.17,-0.09,0.08,1,,,
1799,22.56,11.9,42.91,-0.12,0.1,1.01,,,
1800,18.64,11.64,42.41,-0.13,0.15,0.98,,,
1801,13.43,12.19,40.55,-0.13,0.14,0.93,,,
1802,9.3,14.48,38.37,-0.13,0.11,0.92,,,
1803,7.88,18.2,35.67,-0.15,0.11,0.94,,,
1804,8.87,19.49,32.02,-0.16,0.11,0.93,,,
1805,8.54,18.54,28.42,-0.17,0.1,0.92,,,
1806,6.17,18.34,25.13,-0.16,0.09,0.86,,,
1807,0.6,20.76,22.41,-0.2,0.08,0.88,,,
1808,-6.12,21.63,19.16,-0.22,0.08,0.89,,,
1809,-10.33,19.7,16.6,-0.23,0.07,0.93,,,
1810,-10.47,19.98,13.74,-0.23,0.06,0.97,,,
1811,-9.09,17.74,11.33,-0.23,0.07,0.99,,,
1812,-6.47,16.7,8.36,-0.24,0.1,1.03,,,
1813,-5.09,15.59,4.95,-0.25,0.14,1.06,,,
1814,-4.02,13.48,0.89,-0.26,0.16,1.09,,,
1815,-2.86,12.71,-4.01,-0.26,0.17,1.14,,,
1816,-2.13,11.87,-9.59,-0.27,0.21,1.19,,,
1817,-0.97,10.54,-15.83,-0.27,0.23,1.14,,,
1818,-1.48,8.94,-21.77,-0.26,0.22,1.13,,,
1819,-1.47,6.79,-26.8,-0.24,0.19,1.12,,,
1820,2.53,6.51,-30.03,-0.25,0.18,1.11,,,
1821,11.27,1.59,-32.76,-0.3,0.23,1.17,,,
1822,21.07,-8.94,-35.64,-0.31,0.32,1.18,,,
1823,19.11,-16.45,-41.36,-0.31,0.36,1.08,,,
1824,6.58,-17.04,-47.42,-0.28,0.27,0.97,,,
1825,-4.27,-16.04,-51.18,-0.24,0.18,0.86,,,
1826,-5.8,-14.29,-50.83,-0.23,0.09,0.85,,,
1827,3.95,-15.1,-48.16,-0.21,0.06,0.82,,,
1828,16.45,-17.84,-45.07,-0.22,0.1,0.93,,,
1829,25.98,-18.22,-42.63,-0.24,0.16,0.94,,,
1830,26.31,-18.26,-41.58,-0.21,0.21,0.88,,,
1831,18.37,-17.96,-40.69,-0.2,0.17,0.91,,,
1832,12.95,-14.55,-39.7,-0.16,0.12,0.93,,,
1833,13.17,-14.41,-39.56,-0.13,0.1,0.88,,,
1834,17.24,-15.11,-39.4,-0.09,0.05,0.88,,,
1835,22.51,-16.46,-38.88,-0.06,0,0.82,,,
1836,23.58,-17.31,-38.48,-0.06,-0.01,0.85,,,
1837,19.73,-18.35,-38.28,-0.07,-0.01,0.9,,,
1838,11.83,-17.91,-37.13,-0.08,0.02,0.97,,,
1839,3.98,-17.49,-34.64,-0.08,0.02,0.97,,,
1840,-1.27,-19.45,-30.5,-0.07,0.01,1.03,,,
1841,-1.46,-19.33,-24.97,-0.07,0,1.05,,,
1842,-0.8,-20.6,-18.51,-0.08,0.02,1.09,,,
1843,-0.53,-18.87,-12.19,-0.07,0.06,1.1,,,
1844,-3.6,-18.33,-5.98,-0.07,0.11,1.1,,,
1845,-7.62,-19.25,-0.26,-0.09,0.13,1.13,,,
1846,-10.05,-16.67,5.02,-0.09,0.11,1.13,,,
1847,-10.32,-12.65,9.83,-0.09,0.13,1.13,,,
1848,-7.49,-10.21,14.15,-0.11,0.16,1.16,,,
1849,-1.24,-7.27,19.16,-0.15,0.18,1.23,,,
1850,5.05,-8.42,24.04,-0.16,0.21,1.23,,,
1851,8.24,-9.8,26.91,-0.16,0.24,1.2,,,
1852,6.8,-8.35,26.02,-0.13,0.23,1.13,,,
1853,5.33,-3.67,24.41,-0.09,0.2,1.14,,,
1854,6.44,1.8,22.42,-0.06,0.18,1.13,,,
1855,10.99,7.22,20.4,-0.06,0.19,1.13,,,
1856,14.82,10.38,18.7,-0.08,0.23,1.1,,,
1857,14.69,12.43,16.51,-0.09,0.27,1.09,,,
1858,11.74,14.13,13.96,-0.09,0.26,1.04,,,
1859,6.59,13.03,11.39,-0.09,0.21,0.95,,,
1860,1.59,14.3,9.91,-0.07,0.18,0.92,,,
1861,-0.68,18.45,8.36,-0.06,0.14,0.87,,,
1862,-2.17,19.45,7.81,-0.07,0.13,0.86,,,
1863,-3.49,19.41,5.84,-0.08,0.13,0.85,,,
1864,-6.89,20.45,4.88,-0.08,0.11,0.85,,,
1865,-12.06,21.63,3.92,-0.09,0.1,0.86,,,
1866,-16.68,22.32,2.43,-0.1,0.08,0.87,,,
1867,-19.8,22.4,1,-0.13,0.08,0.92,,,
1868,-20,23.02,-0.67,-0.14,0.08,0.97,,,
1869,-18.34,20.86,-4.06,-0.14,0.07,0.99,,,
1870,-15.97,20.25,-6.6,-0.13,0.06,1.01,,,
1871,-14.34,19.02,-8.87,-0.14,0.07,1.02,,,
1872,-13.6,15.77,-11.74,-0.16,0.09,1.05,,,
1873,-11.38,12.41,-14.98,-0.17,0.11,1.07,,,
1874,-8.05,8.66,-17.67,-0.19,0.14,1.1,,,
1875,-5.51,4.33,-20.45,-0.21,0.16,1.12,,,
1876,-4.4,1.74,-24,-0.21,0.18,1.11,,,
1877,-5.21,-0.42,-27.48,-0.2,0.15,1.11,,,
1878,-6.39,-0.99,-29.83,-0.19,0.11,1.1,,,
1879,-4.02,1.48,-30.53,-0.17,0.08,1.07,,,
1880,5.08,3.06,-30.93,-0.2,0.14,1.19,,,
1881,12.83,0.88,-33.19,-0.22,0.24,1.16,,,
1882,11.94,-0.89,-37.64,-0.21,0.28,1.04,,,
1883,0.41,1.15,-41.1,-0.18,0.2,0.95,,,
1884,-8.09,4.03,-41.96,-0.15,0.12,0.88,,,
1885,-5.47,5.05,-39.9,-0.15,0.05,0.87,,,
1886,7.62,-0.42,-35.69,-0.18,0.05,0.87,,,
1887,22.23,-7.28,-31.28,-0.23,0.11,0.92,,,
1888,28.88,-11.98,-28.15,-0.24,0.15,0.92,,,
1889,23.02,-13.63,-26.64,-0.22,0.14,0.92,,,
1890,13.76,-11.23,-26.31,-0.18,0.11,0.92,,,
1891,7.2,-8.51,-26.03,-0.16,0.08,0.94,,,
1892,7.5,-8.44,-24.62,-0.14,0.01,0.88,,,
1893,9.94,-10.76,-22.21,-0.12,-0.03,0.89,,,
1894,10.39,-11.89,-19.91,-0.12,-0.04,0.91,,,
1895,6.56,-9.38,-19.42,-0.11,-0.02,0.94,,,
1896,-0.57,-7.91,-19.78,-0.1,0,0.97,,,
1897,-9.35,-7.74,-20.06,-0.11,0,1.02,,,
1898,-15.04,-7.06,-19.35,-0.1,-0.02,1.03,,,
1899,-17.23,-4.9,-16.14,-0.09,-0.05,1.03,,,
1900,-14.7,-2.93,-10.48,-0.1,-0.06,1.06,,,
1901,-12.44,-4.73,-3.87,-0.09,-0.05,1.07,,,
1902,-11.7,-4.55,2.67,-0.08,-0.02,1.1,,,
1903,-12.1,-8.42,8.77,-0.08,0.01,1.11,,,
1904,-12.96,-8.13,13.75,-0.08,0.04,1.16,,,
1905,-14.21,-6.26,17.76,-0.08,0.05,1.18,,,
1906,-13.22,-7.23,21.42,-0.06,0.04,1.11,,,
1907,-12.35,-8.42,25.27,-0.06,0.04,1.11,,,
1908,-9.16,-7.52,30.04,-0.06,0.06,1.09,,,
1909,-4.02,-5.08,33.84,-0.1,0.08,1.15,,,
1910,-0.55,-8.94,36.45,-0.14,0.15,1.19,,,
1911,1.88,-9.92,36.33,-0.1,0.18,1.08,,,
1912,-1.94,-7.76,35.38,-0.11,0.16,1.01,,,
1913,-4.67,0.94,34.87,-0.09,0.12,0.99,,,
1914,-1.49,4.29,35.67,-0.08,0.07,1,,,
1915,6.06,3.87,38.39,-0.11,0.08,1.04,,,
1916,13.5,4.62,40.36,-0.12,0.11,1.04,,,
1917,13.85,5.8,40.92,-0.12,0.16,1.03,,,
1918,7.51,4.74,40.09,-0.1,0.17,0.95,,,
1919,2.05,7.61,38.29,-0.11,0.15,0.94,,,
1920,-2.38,7.7,35.48,-0.09,0.11,0.9,,,
1921,-0.83,9.03,32.12,-0.08,0.08,0.86,,,
1922,3.32,11.88,28.25,-0.1,0.08,0.9,,,
1923,5.79,11.51,24.09,-0.13,0.08,0.9,,,
1924,2.81,11.71,20.88,-0.14,0.06,0.89,,,
1925,-3.13,14.99,18.93,-0.14,0.02,0.89,,,
1926,-8.7,16.79,17.76,-0.17,-0.01,0.9,,,
1927,-13.71,18.31,17.23,-0.21,0,1.05,,,
1928,-14.79,20.05,16.13,-0.19,-0.01,1.05,,,
1929,-14.76,22.37,13.97,-0.19,0,1.08,,,
1930,-15.61,24.72,11.9,-0.19,0.05,1.1,,,
1931,-17.12,25.43,8.93,-0.22,0.08,1.17,,,
1932,-18.42,25.93,5.36,-0.24,0.08,1.16,,,
1933,-19.64,26.34,0.97,-0.25,0.13,1.16,,,
1934,-21.57,25.35,-4.37,-0.27,0.14,1.16,,,
1935,-22.26,23.58,-11.45,-0.27,0.15,1.11,,,
1936,-20.38,20.18,-18.77,-0.27,0.12,1.03,,,
1937,-10.26,15.74,-23.73,-0.27,0.05,0.97,,,
1938,9.39,6.73,-26.86,-0.31,0.06,1.12,,,
1939,26.25,-3.53,-29.66,-0.3,0.19,1.07,,,
1940,29.2,-10.01,-35.88,-0.31,0.34,1.1,,,
1941,21.14,-10.86,-43.64,-0.28,0.33,1.02,,,
1942,8.99,-13.27,-52.4,-0.23,0.27,0.96,,,
1943,8.82,-10.07,-56.9,-0.18,0.16,0.88,,,
1944,20.59,-10.11,-57.86,-0.16,0.04,0.81,,,
1945,38.82,-13.68,-55.31,-0.21,0.06,0.88,,,
1946,48.25,-18.33,-52.72,-0.24,0.15,0.89,,,
1947,42.62,-23.17,-54.03,-0.24,0.21,0.92,,,
1948,30.32,-24.85,-53.93,-0.24,0.21,0.79,,,
1949,19.69,-25.97,-54.31,-0.21,0.17,0.87,,,
1950,16.21,-25.88,-51.8,-0.19,0.1,0.86,,,
1951,17.86,-27.51,-48.06,-0.19,0.04,0.86,,,
1952,20.77,-31.02,-43.77,-0.17,0,0.85,,,
1953,17.43,-30.7,-39.8,-0.14,0,0.85,,,
1954,9.3,-26.87,-36.81,-0.1,0.01,0.9,,,
1955,0.59,-21.87,-35.5,-0.06,0.03,0.96,,,
1956,-6.17,-17.78,-33.85,-0.08,0.02,1.07,,,
1957,-7.21,-16.49,-30.9,-0.06,-0.02,1.05,,,
1958,-5.96,-14.09,-25.96,-0.04,-0.04,1.08,,,
1959,-5.81,-11.77,-20.41,-0.04,-0.05,1.11,,,
1960,-7.67,-10.08,-13.85,-0.02,-0.08,1.12,,,
1961,-8.7,-6.29,-6.5,-0.02,-0.07,1.17,,,
1962,-7.55,-5.27,-0.02,-0.03,-0.02,1.21,,,
1963,-5.27,-4.46,4.83,-0.02,0,1.29,,,
1964,-3.54,-2.82,8.45,0,-0.01,1.28,,,
1965,-0.76,-2.73,12.09,0.02,-0.04,1.25,,,
1966,5.4,-3.58,17.94,0.02,-0.06,1.26,,,
1967,12.19,-5.23,24.09,-0.02,0.03,1.3,,,
1968,11.81,-13.1,25.34,-0.09,0.18,1.4,,,
1969,5.24,-12.71,25.6,-0.09,0.3,1.24,,,
1970,-6.45,-9.82,23.41,-0.04,0.25,1.1,,,
1971,-17.73,-1.52,21.46,-0.02,0.21,1.03,,,
1972,-20.79,6.37,21.16,0.01,0.16,1.02,,,
1973,-17.26,7.13,22.26,0.01,0.11,0.95,,,
1974,-7.48,7.86,23.07,-0.03,0.17,0.99,,,
1975,0.13,10.11,23.04,-0.04,0.2,0.94,,,
1976,-3.88,5.44,20.33,-0.07,0.21,0.92,,,
1977,-11.83,9.48,17.07,-0.1,0.17,0.89,,,
1978,-20.27,18.87,10.5,-0.17,0.16,1,,,
1979,-18.71,20.17,4.69,-0.11,0.05,0.94,,,
1980,-13.52,19.31,2.76,-0.23,-0.01,0.95,,,
1981,-6.95,18.44,5.05,-0.19,-0.08,0.84,,,
1982,-4.15,18.35,7.96,-0.2,-0.09,0.84,,,
1983,-0.9,19.16,12.1,-0.13,-0.05,0.82,,,
1984,0.48,16.87,14.49,-0.14,-0.01,0.9,,,
1985,-0.49,14.74,15.87,-0.17,0.05,0.94,,,
1986,-2.95,11.71,16.1,-0.14,0.08,0.92,,,
1987,-6.51,11.13,15.65,-0.14,0.09,0.95,,,
1988,-8.23,10.43,14.17,-0.14,0.1,0.98,,,
1989,-7.74,10.88,10.98,-0.14,0.14,0.98,,,
1990,-7.75,11.55,5.51,-0.15,0.19,1.04,,,
1991,-8.24,11.72,-0.87,-0.16,0.22,1.04,,,
1992,-10.81,9.04,-8.12,-0.17,0.25,1.03,,,
1993,-14.14,7.3,-14.16,-0.16,0.22,1.04,,,
1994,-12.99,6.19,-19.71,-0.17,0.2,1.07,,,
1995,-6.65,5.08,-23.87,-0.2,0.17,1.07,,,
1996,3.66,6.38,-26.58,-0.24,0.16,1.1,,,
1997,15.06,7.85,-26.84,-0.27,0.15,1.19,,,
1998,25.04,8.17,-27.86,-0.3,0.19,1.23,,,
1999,31.04,5.25,-28.41,-0.33,0.26,1.19,,,
2000,29.12,-0.59,-30.95,-0.32,0.24,1.06,,,
2001,21.23,-9.03,-34.03,-0.29,0.16,0.95,,,
2002,19.16,-8.37,-36.2,-0.23,0.07,0.85,,,
2003,22.5,-6.34,-36.45,-0.21,0.01,0.87,,,
2004,26.57,-11.55,-35.94,-0.24,0.05,0.96,,,
2005,25.43,-18.54,-36.48,-0.24,0.15,0.94,,,
2006,15.6,-19.87,-38.82,-0.24,0.17,0.91,,,
2007,4.95,-17.19,-42.09,-0.23,0.13,0.93,,,
2008,-0.31,-14.8,-44.15,-0.22,0.07,0.99,,,
2009,0.59,-15.31,-45.39,-0.21,0.03,0.91,,,
2010,2.4,-14.94,-45.63,-0.16,0.03,0.89,,,
2011,2.85,-14.84,-44.95,-0.14,0.01,0.88,,,
2012,0.57,-14.81,-43.73,-0.14,-0.01,0.85,,,
2013,-2.82,-15.51,-42.63,-0.13,0.02,0.9,,,
2014,-7.48,-15.36,-40.8,-0.12,0.02,0.98,,,
2015,-7.18,-16.49,-37.32,-0.1,0,0.93,,,
2016,-5,-15.53,-33.24,-0.09,-0.01,0.99,,,
2017,0.63,-13.65,-29.9,-0.09,0.02,1.06,,,
2018,5.93,-12.66,-25.99,-0.09,0.05,1.11,,,
2019,9.66,-12.74,-21.43,-0.1,0.08,1.11,,,
2020,8.1,-11.46,-16.51,-0.1,0.1,1.11,,,
2021,3.66,-7.71,-14.34,-0.1,0.13,1.15,,,
2022,1.14,-5.13,-12.59,-0.11,0.14,1.16,,,
2023,1.17,-4.91,-10.38,-0.11,0.13,1.11,,,
2024,3.81,-6.29,-7.31,-0.11,0.09,1.09,,,
2025,7.99,-7.09,-3.55,-0.12,0.08,1.11,,,
2026,17.05,-8.76,-1.11,-0.13,0.04,1.09,,,
2027,31.43,-12.78,1.61,-0.15,0.02,1.15,,,
2028,46.7,-18.91,3.66,-0.15,0.05,1.1,,,
2029,50.59,-23.6,3.82,-0.14,0.13,1.04,,,
2030,42.46,-24.91,0.92,-0.13,0.15,0.97,,,
2031,32.61,-20.39,-3.35,-0.11,0.12,0.93,,,
2032,22.75,-12.64,-7.2,-0.09,0.11,0.93,,,
2033,16.82,-9.56,-10.7,-0.14,0.16,1.02,,,
2034,17.19,-6.82,-12.98,-0.15,0.22,1.07,,,
2035,14.8,-2.12,-15.79,-0.17,0.28,1.08,,,
2036,9.91,4.6,-18.78,-0.17,0.32,1.07,,,
2037,2.52,9.55,-21.86,-0.17,0.34,1.08,,,
2038,-2.68,13.81,-24.73,-0.17,0.31,1.06,,,
2039,-3.87,18.01,-26.59,-0.15,0.24,1.02,,,
2040,-4.93,20.19,-28.78,-0.13,0.19,0.97,,,
2041,-6.28,21.79,-30.73,-0.13,0.16,0.94,,,
2042,-8.76,23.98,-33.24,-0.12,0.13,0.91,,,
2043,-13.34,24.45,-36.72,-0.13,0.11,0.89,,,
2044,-18.53,24.75,-41.26,-0.16,0.09,0.89,,,
2045,-21.17,27.06,-45.25,-0.16,0.05,0.92,,,
2046,-22.57,25.14,-48.14,-0.2,0.04,0.94,,,
2047,-22.58,20.88,-50.2,-0.23,0.06,1,,,
2048,-19.85,19.9,-53.83,-0.25,0.09,1.03,,,
2049,-16.65,17.78,-58.19,-0.27,0.12,1.05,,,
2050,-12.69,15.54,-62.85,-0.3,0.14,1.11,,,
2051,-9.89,12.23,-67.77,-0.32,0.17,1.1,,,
2052,-8.89,9.77,-72.49,-0.34,0.19,1.13,,,
2053,-10.29,7.54,-77.46,-0.36,0.18,1.11,,,
2054,-11.86,5.59,-81.02,-0.36,0.16,1.09,,,
2055,-11.31,2.81,-82.84,-0.35,0.1,1.1,,,
2056,-4.08,1.54,-82.88,-0.36,0.06,1.14,,,
2057,6.14,2.24,-82.98,-0.38,0.1,1.23,,,
2058,12.03,-1.82,-85.88,-0.36,0.23,1.16,,,
2059,7.88,-2.33,-92.13,-0.33,0.33,1.09,,,
2060,-1.51,-0.58,-99.92,-0.3,0.34,1.06,,,
2061,-10.67,-1.26,-107.96,-0.27,0.28,0.95,,,
2062,-14.15,-2.41,-111.99,-0.23,0.19,0.86,,,
2063,-5.27,-3.54,-112.38,-0.21,0.08,0.83,,,
2064,8.3,-9.29,-109.63,-0.23,0.03,0.82,,,
2065,21.73,-17.26,-105.92,-0.26,0.06,0.82,,,
2066,26.44,-23.19,-103.08,-0.26,0.11,0.89,,,
2067,20.55,-25.75,-101.73,-0.25,0.13,0.9,,,
2068,11.04,-25.02,-101.7,-0.24,0.1,0.89,,,
2069,5.69,-23.55,-102.81,-0.2,0.06,0.91,,,
2070,7.75,-20.8,-103.61,-0.16,-0.01,0.86,,,
2071,13.41,-18.87,-103.62,-0.15,-0.09,0.85,,,
2072,16.26,-18.23,-101.48,-0.17,-0.13,0.87,,,
2073,14.36,-16.29,-96.67,-0.18,-0.13,0.88,,,
2074,8.47,-13.5,-89.82,-0.19,-0.11,0.95,,,
2075,4.66,-11.62,-81.13,-0.2,-0.12,1.04,,,
2076,3.97,-12.04,-70.84,-0.19,-0.12,1.06,,,
2077,5.75,-8.72,-60.34,-0.14,-0.12,1.07,,,
2078,7.54,-6.48,-50.46,-0.1,-0.09,1.07,,,
2079,9.22,-3.46,-42.12,-0.06,-0.05,1.08,,,
2080,9.56,-2.94,-34.85,-0.03,0,1.08,,,
2081,9.69,-2.68,-28.66,-0.01,0.05,1.08,,,
2082,8.94,-2.99,-23.48,0,0.08,1.13,,,
2083,4.05,-7.29,-19.86,0,0.1,1.08,,,
2084,-0.62,-6.36,-16.69,0.04,0.07,1.11,,,
2085,-1.41,-3.62,-12.61,0.05,0.05,1.09,,,
2086,1.77,-6.77,-7.62,0.04,0.02,1.1,,,
2087,10.21,-8.58,-4.71,0.01,0.06,1.18,,,
2088,18.01,-11.75,-3.34,-0.03,0.13,1.19,,,
2089,19.13,-12.21,-5.19,-0.05,0.19,1.18,,,
2090,12.88,-7.87,-8.09,-0.05,0.17,1.1,,,
2091,5.71,-3.78,-10.92,-0.06,0.11,1.04,,,
2092,4.19,1.61,-11.27,-0.08,0.04,1.02,,,
2093,8.31,6.89,-10.91,-0.11,0.01,1.05,,,
2094,16.09,9.42,-8.87,-0.13,0.03,1.04,,,
2095,18.91,10.51,-7.87,-0.15,0.07,0.97,,,
2096,16.02,15.33,-7.03,-0.17,0.07,0.94,,,
2097,9.98,18.37,-6.54,-0.2,0.09,0.94,,,
2098,6.16,17.14,-6.62,-0.2,0.09,0.93,,,
2099,5.14,17.37,-8.04,-0.21,0.11,0.95,,,
2100,5.43,17.45,-10.23,-0.19,0.1,0.91,,,
2101,5.31,17.48,-12.33,-0.19,0.07,0.91,,,
2102,4.46,18.17,-13.91,-0.17,0.05,0.89,,,
2103,1.4,19.81,-14.43,-0.18,0.03,0.9,,,
2104,-2.18,20.54,-15.72,-0.19,0.04,0.96,,,
2105,-5.76,21.25,-17.89,-0.21,0.04,0.96,,,
2106,-9.02,21.88,-20.19,-0.21,0.02,0.94,,,
2107,-11.6,22.12,-23.26,-0.23,0.01,0.96,,,
2108,-12.53,21.34,-26.44,-0.24,-0.02,0.97,,,
2109,-11.35,20.33,-28.83,-0.25,-0.04,1,,,
2110,-6.81,20,-31.12,-0.26,-0.03,1.02,,,
2111,-3.25,19.22,-34.19,-0.27,-0.01,1.09,,,
2112,1.32,19.13,-37.9,-0.29,0.03,1.16,,,
2113,3.54,18.02,-42.3,-0.32,0.09,1.21,,,
2114,3.12,15.72,-46.96,-0.33,0.13,1.2,,,
2115,0.84,13.9,-52.34,-0.32,0.14,1.18,,,
2116,-2.17,12.32,-57.66,-0.32,0.09,1.15,,,
2117,-4.39,10.74,-60.5,-0.3,0.02,1.12,,,
2118,-0.83,10.02,-62.99,-0.29,-0.02,1.12,,,
2119,12.5,8.7,-64.6,-0.31,0.04,1.14,,,
2120,19.23,4.46,-68.47,-0.34,0.18,1.16,,,
2121,14.76,1.51,-74.28,-0.32,0.28,1.07,,,
2122,0.97,-1.08,-80.3,-0.25,0.24,0.92,,,
2123,-9.96,-3.12,-83.83,-0.2,0.14,0.85,,,
2124,-6.82,-4.77,-83.48,-0.17,0.06,0.83,,,
2125,9.29,-9.79,-79.88,-0.17,0.01,0.82,,,
2126,28.62,-16.54,-74.73,-0.19,0.04,0.89,,,
2127,41.31,-22.72,-69.87,-0.2,0.09,0.86,,,
2128,39.13,-23.04,-66.93,-0.2,0.1,0.91,,,
2129,27.95,-19.66,-64.21,-0.19,0.06,0.89,,,
2130,17.37,-16.37,-60.44,-0.17,0,0.91,,,
2131,14.93,-14.27,-56.21,-0.16,-0.08,0.93,,,
2132,17.49,-13.87,-50.97,-0.14,-0.11,0.92,,,
2133,20.78,-13.51,-46.11,-0.13,-0.12,0.88,,,
2134,18,-12.38,-42.48,-0.09,-0.09,0.84,,,
2135,7.62,-9.62,-39.97,-0.1,-0.08,0.92,,,
2136,-2.81,-7.75,-37.5,-0.12,-0.09,1,,,
2137,-9.3,-7.52,-34.4,-0.12,-0.05,1.02,,,
2138,-12.22,-5.3,-30.76,-0.1,-0.05,1.09,,,
2139,-11.78,-4.96,-26.39,-0.11,-0.01,1.11,,,
2140,-10.28,-5.68,-22.05,-0.11,0.02,1.14,,,
2141,-9.83,-4.29,-17.21,-0.12,0.02,1.11,,,
2142,-9.58,-1.96,-12.57,-0.13,0.03,1.14,,,
2143,-7.67,0.38,-9.05,-0.12,0.05,1.15,,,
2144,-6.52,4.22,-5.24,-0.12,0.04,1.13,,,
2145,-5.57,6.87,-1.79,-0.12,0.02,1.09,,,
2146,-3.29,7.61,1.51,-0.11,0.02,1.08,,,
2147,0.75,7.47,5.99,-0.11,0.01,1.11,,,
2148,6.76,5.49,10.23,-0.11,0.05,1.09,,,
2149,14.07,3.53,13.33,-0.13,0.1,1.1,,,
2150,19.62,0.9,13.93,-0.14,0.15,1.09,,,
2151,21.27,-2.43,12.09,-0.12,0.15,0.99,,,
2152,16.59,-3.02,9.27,-0.1,0.11,0.99,,,
2153,11.49,0.28,7.01,-0.09,0.07,0.94,,,
2154,8.94,5.39,5.88,-0.11,0.05,0.97,,,
2155,8.82,5.73,6.48,-0.13,0.03,0.95,,,
2156,7.36,4.16,8.28,-0.17,0.01,0.98,,,
2157,5.4,5.22,11.12,-0.18,0,0.95,,,
2158,2.2,5.98,14.75,-0.19,0,0.98,,,
2159,-1.12,5.87,18.1,-0.18,0.01,0.97,,,
2160,-2.86,6.82,19.46,-0.19,0.02,0.98,,,
2161,-4.44,7.93,19.84,-0.18,0.02,0.99,,,
2162,-5.3,9.34,19.36,-0.17,0.02,0.95,,,
2163,-5.54,12.24,18.04,-0.18,0,0.95,,,
2164,-3.8,13.6,16.97,-0.19,0,0.95,,,
2165,-1.67,13.59,16.55,-0.19,-0.01,0.96,,,
2166,-0.05,13.87,15.54,-0.2,-0.02,0.95,,,
2167,0.4,14.32,14.55,-0.21,-0.03,0.96,,,
2168,0.62,14.9,12.84,-0.23,-0.03,1.01,,,
2169,1.53,13.65,11.28,-0.22,-0.02,1.04,,,
2170,0.85,12.47,8.74,-0.22,-0.01,1.05,,,
2171,-0.06,12.45,5.42,-0.24,0.01,1.07,,,
2172,-0.41,13.51,1.61,-0.25,0.02,1.09,,,
2173,1.72,13.33,-1.57,-0.28,0.06,1.11,,,
2174,4.96,12.09,-5.67,-0.31,0.11,1.11,,,
2175,6.95,9.08,-9.39,-0.32,0.14,1.13,,,
2176,8.31,6.9,-12.59,-0.3,0.11,1.1,,,
2177,10.37,4.46,-13.89,-0.29,0.1,1.15,,,
2178,13.09,0.48,-14.51,-0.29,0.1,1.13,,,
2179,16.4,-1.41,-15.64,-0.29,0.15,1.19,,,
2180,19.1,-0.5,-18.85,-0.3,0.23,1.18,,,
2181,16.33,-2.58,-24.25,-0.31,0.27,1.12,,,
2182,7.49,-7.14,-29.83,-0.27,0.2,1.03,,,
2183,-0.59,-10.09,-32.16,-0.23,0.1,0.89,,,
2184,-6.14,-8.61,-31.53,-0.22,0.04,0.93,,,
2185,-5.99,-9.14,-29.94,-0.22,0.04,0.9,,,
2186,1.18,-12.74,-26.81,-0.2,0.04,0.93,,,
2187,10.2,-16.5,-25.25,-0.21,0.09,0.97,,,
2188,17.88,-20.44,-24.54,-0.19,0.14,0.94,,,
2189,15.89,-23.96,-25.3,-0.15,0.14,0.88,,,
2190,12.87,-22.63,-27.33,-0.1,0.11,0.81,,,
2191,5.7,-16.33,-30.03,-0.11,0.13,0.81,,,
2192,-1.43,-15.81,-31.55,-0.11,0.06,0.89,,,
2193,-4.7,-12.81,-31.64,-0.1,0.05,0.82,,,
2194,-6.71,-13.02,-30.41,-0.11,-0.01,0.82,,,
2195,-4.51,-12.2,-28.2,-0.13,-0.05,0.86,,,
2196,-1.53,-13.26,-25.9,-0.13,-0.04,0.9,,,
2197,0.49,-15.55,-22.11,-0.12,-0.07,0.93,,,
2198,1.01,-15.02,-17.83,-0.1,-0.04,0.96,,,
2199,-1.86,-12.11,-13.58,-0.1,0.04,0.97,,,
2200,-8.99,-12.29,-10.81,-0.12,0.03,1.11,,,
2201,-10.67,-12.08,-6.13,-0.11,0.03,1.14,,,
2202,-10.36,-10.56,-1.3,-0.1,0.03,1.16,,,
2203,-9.18,-11.75,3.04,-0.1,0.01,1.15,,,
2204,-9.29,-11.72,6.3,-0.07,0,1.16,,,
2205,-5.1,-6.39,10.34,-0.03,-0.03,1.12,,,
2206,-2.96,-3.59,14.74,-0.05,0.01,1.15,,,
2207,2.5,-0.71,18.42,-0.09,0.1,1.23,,,
2208,8.26,0.24,20.42,-0.11,0.2,1.35,,,
2209,12.08,-1.35,20.26,-0.08,0.23,1.26,,,
2210,10.75,-3.36,19.65,-0.09,0.2,1.23,,,
2211,6.03,4.41,17.97,-0.04,0.13,1.05,,,
2212,-0.27,8.76,15.65,-0.05,0.1,1.03,,,
2213,-4.49,14.19,13.46,-0.08,0.1,1.01,,,
2214,-3.3,18.12,11.97,-0.06,0.08,1.01,,,
2215,-1.7,16.7,12.66,-0.09,0.08,0.95,,,
2216,-2.6,13.67,13.79,-0.12,0.07,0.9,,,
2217,-8.17,15,15.23,-0.11,0.05,0.86,,,
2218,-14.01,16.51,16.17,-0.12,0.05,0.87,,,
2219,-15.37,21.66,15.92,-0.13,0.05,0.92,,,
2220,-15.38,21.84,15.35,-0.14,0.05,0.98,,,
2221,-13.54,20.24,14.99,-0.14,0.02,0.94,,,
2222,-12.83,20.19,15.69,-0.09,0,0.91,,,
2223,-12.81,18.87,17.68,-0.09,-0.02,0.88,,,
2224,-11.98,17.35,18.52,-0.09,-0.05,0.92,,,
2225,-10.19,18.06,18.92,-0.1,-0.05,0.96,,,
2226,-9.16,16.85,18.6,-0.12,-0.04,1.04,,,
2227,-10.24,16.5,17.26,-0.16,-0.02,1.03,,,
2228,-14.17,13.77,15.88,-0.16,0,1.04,,,
2229,-18.19,12.44,12.95,-0.2,0.07,1.09,,,
2230,-21.74,11.64,8.58,-0.22,0.07,1.14,,,
2231,-22.83,10.84,3.47,-0.22,0.07,1.14,,,
2232,-21.59,9.51,-1.52,-0.25,0.06,1.18,,,
2233,-19.78,9.45,-6.23,-0.26,0.09,1.15,,,
2234,-19,8.41,-10.01,-0.27,0.09,1.17,,,
2235,-18.02,6.77,-12.61,-0.29,0.06,1.14,,,
2236,-12.36,7.23,-13.49,-0.29,0.07,1.17,,,
2237,0.73,6.43,-14.26,-0.35,0.15,1.26,,,
2238,10.72,-0.42,-16.22,-0.34,0.19,1.21,,,
2239,7.72,-9.28,-16.55,-0.32,0.17,1.11,,,
2240,-3.64,-8.22,-18.57,-0.24,0.04,0.88,,,
2241,-11.54,2,-18.14,-0.22,-0.02,0.92,,,
2242,-12.18,6.73,-16.97,-0.22,-0.02,0.92,,,
2243,-5.34,1.2,-15.22,-0.23,0.02,0.98,,,
2244,1.99,3.84,-12.9,-0.23,0.08,0.99,,,
2245,2.78,2.19,-12.75,-0.22,0.09,0.95,,,
2246,-2.19,2.57,-12.24,-0.23,0.07,0.92,,,
2247,-7.2,3.58,-10.89,-0.22,0.06,0.87,,,
2248,-8.09,2.32,-8.86,-0.2,0,0.84,,,
2249,-2.89,0.36,-6.73,-0.19,-0.04,0.85,,,
2250,5.26,-1.88,-5.52,-0.19,-0.09,0.8,,,
2251,10.89,-4.28,-5.04,-0.21,-0.09,0.8,,,
2252,11.18,-6.33,-4.38,-0.21,-0.06,0.77,,,
2253,4.44,-8.33,-3.75,-0.21,-0.06,0.76,,,
2254,-2.22,-9.3,-3.8,-0.22,-0.08,0.82,,,
2255,-4.38,-7,-3.7,-0.2,-0.13,0.89,,,
2256,-1.18,-4.43,-3.72,-0.2,-0.15,0.96,,,
2257,3.88,-4.85,-4.44,-0.21,-0.13,1.02,,,
2258,6.17,-5.76,-5.5,-0.25,-0.1,1.02,,,
2259,4.14,-2.88,-6.66,-0.26,-0.06,1.06,,,
2260,1.3,4.1,-6.61,-0.27,-0.08,1.1,,,
2261,-0.42,2.25,-8.93,-0.28,-0.03,0.9,,,
2262,-0.67,4.06,-9.59,-0.26,-0.03,1.13,,,
2263,-1.68,0.94,-10.5,-0.24,-0.03,1.04,,,
2264,-2.68,-4.08,-12.67,-0.26,0.02,1.19,,,
2265,-3.05,-3.51,-14.16,-0.22,-0.02,1.14,,,
2266,1.14,3.59,-12.09,-0.16,-0.05,1.15,,,
2267,3.62,4.77,-7.78,-0.13,0.01,1.32,,,
2268,13.19,7.8,-4.28,-0.21,0.21,1.49,,,
2269,17.29,-4.58,-4.7,-0.25,0.34,1.28,,,
2270,16.88,-19.36,-5.9,-0.23,0.28,0.93,,,
2271,9.4,-30.58,-5.03,-0.2,0.15,0.8,,,
2272,2.6,-26.68,-4.01,-0.2,0.1,0.93,,,
2273,5.17,-31.38,-5.2,-0.24,0.1,0.9,,,
2274,12.11,-38.7,-8.27,-0.27,0.1,0.88,,,
2275,19.86,-46.64,-10.67,-0.3,0.15,0.93,,,
2276,23.45,-49.96,-11.88,-0.3,0.18,0.99,,,
2277,24.89,-46.22,-10.69,-0.26,0.16,1.07,,,
2278,19.9,-38.08,-10.64,-0.23,0.18,1.04,,,
2279,10.6,-28.07,-14.41,-0.2,0.18,1.12,,,
2280,5.86,-17.08,-19.22,-0.16,0.17,0.97,,,
2281,2.8,-8.85,-23.4,-0.12,0.1,0.93,,,
2282,4.56,-4.15,-26.98,-0.11,0.11,0.97,,,
2283,10.54,-1.25,-29.82,-0.11,0.07,0.93,,,
2284,10.82,-11.16,-30.53,-0.1,0.04,0.81,,,
2285,11.11,-3.49,-30.99,-0.06,0.06,0.77,,,
2286,2.71,-1.1,-32.16,-0.06,0.12,0.79,,,
2287,-6.76,-0.2,-32.29,-0.06,0.14,0.77,,,
2288,-15.38,-2.78,-32.54,-0.04,0.13,0.8,,,
2289,-18.71,1.07,-35.34,-0.02,0.15,0.84,,,
2290,-19.06,5.04,-39.73,-0.01,0.19,0.84,,,
2291,-19.59,8.45,-45.19,0.02,0.16,0.8,,,
2292,-22.37,6.06,-46.51,0.01,0.12,0.75,,,
2293,-26.99,4.5,-48.45,-0.02,0.19,0.73,,,
2294,-29.42,4.49,-51.46,-0.01,0.2,0.73,,,
2295,-26.93,4.94,-55.59,-0.01,0.17,0.75,,,
2296,-19.86,-0.08,-59.82,-0.04,0.14,0.72,,,
2297,-12.71,-1.41,-62.2,-0.05,0.08,0.73,,,
2298,-5.66,-1.54,-61.74,-0.05,0.03,0.64,,,
2299,-2.77,-10.39,-61.48,-0.09,0.08,0.69,,,
2300,2.72,-12.75,-60.89,-0.05,0.07,0.72,,,
2301,8.22,-13.87,-60,-0.02,0.03,0.72,,,
2302,16.04,-18.04,-58.25,-0.02,0.04,0.77,,,
2303,25.93,-19.06,-59.06,-0.02,0.09,0.79,,,
2304,36,-23.23,-62.29,-0.02,0.1,0.89,,,
2305,43.64,-31.06,-65.67,0,0.13,0.93,,,
2306,52.85,-21.27,-69.67,0.04,0.19,0.93,,,
2307,50.33,-26.21,-74.58,0.04,0.26,0.98,,,
2308,44.82,-26.77,-79.54,0.08,0.29,1.06,,,
2309,38.72,-18.15,-85.22,0.09,0.36,1.11,,,
2310,29.69,-18.4,-90.56,0.06,0.34,1.12,,,
2311,20.65,-17.6,-96.9,0.01,0.37,1.26,,,
2312,11.84,4.01,-103.48,0.01,0.31,1.32,,,
2313,2.2,26.17,-104.47,0,0.26,1.22,,,
2314,-7.94,27.16,-106.35,-0.04,0.24,1.27,,,
2315,-13.61,33.96,-102.87,-0.07,0.14,1.32,,,
2316,-11.96,49.86,-95.18,-0.09,0.04,1.34,,,
2317,-9.54,45.93,-86.58,-0.16,0.03,1.32,,,
2318,-6.56,43.8,-79.22,-0.11,0.06,1.28,,,
2319,-8.58,39.94,-69.06,-0.13,0.1,1.31,,,
2320,-9.28,32.42,-57.95,-0.05,0.12,1.15,,,
2321,-5.54,30.21,-48.96,-0.07,0.16,1.29,,,
2322,7.33,24.12,-43.37,0.02,0.15,1.05,,,
2323,14.37,20.41,-41.96,0.02,0.11,1.25,,,
2324,20.71,9.56,-40.93,-0.09,0.11,1.08,,,
2325,20.9,8.54,-37.85,-0.11,0.17,1.27,,,
2326,18.95,13.05,-34.38,-0.07,0.19,1.07,,,
2327,16.56,11.38,-33.06,-0.14,0.09,0.99,,,
2328,18.69,7.11,-30.7,-0.2,0.07,1.12,,,
2329,19.53,-8.78,-28.82,-0.2,0.11,1.23,,,
2330,21.4,-16.49,-25.99,-0.14,0.06,1.11,,,
2331,20.63,-18.1,-22.36,-0.13,0.03,1.13,,,
2332,27.31,-8.82,-21.07,-0.14,0.05,1.15,,,
2333,30.85,-13.56,-23.66,-0.16,0.08,1.15,,,
2334,36.22,-28.52,-18.25,-0.04,0.05,1.26,,,
2335,39.99,-20.21,-14.81,-0.1,0.06,1.03,,,
2336,32.8,-45.55,-5.32,-0.05,-0.08,1.05,,,
2337,34.04,-19.95,3.43,-0.17,-0.05,0.81,,,
2338,9.49,-20.23,0.85,-0.13,-0.06,1.23,,,
2339,6.23,-4.29,1.03,-0.15,-0.12,1.2,,,
2340,3.2,9.33,2.23,-0.04,-0.11,1.12,,,
2341,4.75,16.64,3.78,-0.05,-0.1,1.06,,,
2342,6.11,5.73,5.33,-0.09,-0.11,1.1,,,
2343,-5.85,21.65,6.91,-0.12,-0.13,1.35,,,
2344,-37.67,37.07,8.12,-0.11,-0.06,1.44,,,
2345,-71.07,54.03,10.52,-0.11,-0.03,1.47,,,
2346,-86.29,56.45,10.84,-0.13,-0.02,1.17,,,
2347,-58.34,22.19,7.75,-0.03,0.06,2,,,
2348,-4.38,16.59,15.14,0.19,-0.07,0.87,,,
2349,-1.12,1.24,13.72,-0.24,0.12,0.99,,,
2350,-9.04,-5.28,9.41,-0.17,0.18,0.83,,,
2351,-13.54,-17.78,4.02,-0.12,0.18,0.82,,,
2352,-8.72,-17.39,-0.33,-0.09,0.09,0.83,,,
2353,-2.69,-11.39,-2.06,-0.15,0.05,0.82,,,
2354,-4.43,-13.54,-4.41,-0.26,0.02,1.1,,,
2355,-6.87,-9.29,-5.83,-0.19,-0.15,1.25,,,
2356,-9.95,-4.73,-2.16,-0.1,-0.2,1.21,,,
2357,-13.15,5.03,4.65,-0.12,-0.21,1.12,,,
2358,-15.6,3.5,11.09,-0.1,-0.11,1.01,,,
2359,-10.38,0.1,11.04,-0.1,0,1.04,,,
2360,-2.89,2.88,7.55,-0.07,0.01,1.04,,,
2361,1.01,1.55,4.26,-0.01,-0.05,1,,,
2362,2.58,-0.55,4.01,-0.02,-0.16,1.08,,,
2363,1.11,3.52,7.3,-0.01,-0.22,1.07,,,
2364,-2.22,0.84,10.62,-0.05,-0.19,1.05,,,
2365,-2.99,-2.07,12.05,-0.11,-0.11,1.04,,,
2366,3.05,0.8,12.75,-0.13,-0.09,0.95,,,
2367,8.82,-5.02,12.61,-0.16,-0.01,1.01,,,
2368,10.46,-14.59,11.91,-0.2,-0.1,0.72,,,
2369,13.27,-2.73,10.52,-0.12,0.11,1.06,,,
2370,9.4,2.71,7.09,-0.08,0.24,1.03,,,
2371,3.45,-0.24,3.52,-0.1,0.29,1.09,,,
2372,2.73,6.23,0.75,-0.09,0.27,1.15,,,
2373,6.43,13.38,0.43,-0.09,0.21,1.1,,,
2374,10.39,16.79,0.9,-0.08,0.15,1.01,,,
2375,9.27,10.79,0.23,-0.1,0.16,1.02,,,
2376,9.46,15.52,-0.08,-0.09,0.16,0.97,,,
2377,6.4,15.91,-0.15,-0.1,0.11,0.9,,,
2378,2.85,10.09,-0.2,-0.14,0.11,0.96,,,
2379,-0.83,7.63,-0.75,-0.17,0.11,1.07,,,
2380,-1.6,3.72,-1.9,-0.18,0.07,1.07,,,
2381,-1.41,5.64,-4.03,-0.17,0.05,1.11,,,
2382,-0.23,6.8,-5.35,-0.19,0,1.04,,,
2383,1.64,3,-3.37,-0.2,-0.03,0.97,,,
2384,3.84,0.07,0.13,-0.19,0,0.93,,,
2385,2.95,-2.56,1.44,-0.16,0.05,0.97,,,
2386,1.62,-3.1,2.37,-0.15,0.07,1.03,,,
2387,2.85,-1.21,3.03,-0.12,0.07,1.06,,,
2388,5.2,0.31,2.75,-0.09,0.07,1.06,,,
2389,6.37,1.5,2.81,-0.08,0.1,1.04,,,
2390,5.33,3.08,1.99,-0.07,0.13,1.02,,,
2391,4.16,4.73,0.49,-0.05,0.13,0.99,,,
2392,3.36,5.6,-0.7,-0.06,0.1,0.99,,,
2393,2.72,4.48,0.08,-0.1,0.08,1,,,
2394,1.07,3.49,0.62,-0.12,0.09,1.04,,,
2395,-0.7,3.5,0.7,-0.12,0.08,1.05,,,
2396,-5.72,2.61,0.96,-0.12,0.07,1.02,,,
2397,-12.94,-7.13,0.27,-0.13,0.02,0.69,,,
2398,-8.93,-5.84,0.23,-0.12,0.02,0.93,,,
2399,-2.21,-1.72,0.1,-0.16,0.07,1.09,,,
2400,3.85,3.17,0.8,-0.18,0.09,1.11,,,
2401,3.89,3.53,1.07,-0.15,0.09,1.08,,,
2402,0.93,4.22,1.04,-0.15,0.07,1.03,,,
2403,-0.22,6.51,0.89,-0.15,0.06,0.99,,,
2404,0.62,4.74,1.31,-0.15,0.07,0.97,,,
2405,2.56,3.29,1.59,-0.16,0.08,0.98,,,
2406,4.79,2.54,1.86,-0.16,0.08,0.99,,,
2407,6.85,1.77,1.39,-0.17,0.09,1.01,,,
2408,5.44,0.77,0.15,-0.16,0.12,1.04,,,
2409,0.38,0.38,-1.09,-0.16,0.13,1,,,
2410,-3.39,-0.64,-1.77,-0.15,0.11,1,,,
2411,-3.44,-1.48,-1.51,-0.15,0.09,1,,,
2412,-2.66,-2.07,-1.83,-0.18,0.08,1.02,,,
2413,-2.4,-4.33,-2.18,-0.18,0.09,0.99,,,
2414,-2.84,-4.92,-2.79,-0.17,0.08,1.01,,,
2415,-2.9,-4.48,-2.38,-0.15,0.07,1.02,,,
2416,-2.57,-3.89,-2.31,-0.14,0.07,1.02,,,
2417,-1.74,-2.23,-2.07,-0.13,0.06,1.03,,,
2418,-0.76,-0.57,-1.7,-0.13,0.06,1.04,,,
2419,-0.52,0.23,-1.21,-0.13,0.07,1.03,,,
2420,-0.68,0.18,-1.51,-0.14,0.08,1.02,,,
2421,0.12,0.03,-1.87,-0.14,0.07,1.01,,,
2422,1.07,-0.82,-1.69,-0.14,0.07,0.99,,,
2423,1.88,-1.41,-1.67,-0.14,0.07,1.01,,,
2424,2.17,-1.51,-1.54,-0.14,0.07,1.02,,,
2425,1.71,-1.05,-1.35,-0.14,0.07,1.04,,,
2426,1.21,-1.08,-1.26,-0.14,0.07,1.03,,,
2427,0.53,-0.48,-0.9,-0.13,0.08,1.03,,,
2428,-0.09,-0.86,-1.15,-0.12,0.09,1.02,,,
2429,-0.71,-1.36,-0.86,-0.12,0.09,1.02,,,
2430,-1.94,-1.41,-1.16,-0.12,0.08,1.02,,,
2431,-1.91,-2.29,-1.32,-0.12,0.08,1.01,,,
2432,-1.83,-2.14,-1.2,-0.11,0.07,1.01,,,
2433,-0.98,-1.6,-1.08,-0.12,0.07,1.03,,,
2434,-0.38,-0.68,-1.06,-0.11,0.07,1.04,,,
2435,-0.44,-0.04,-1.35,-0.11,0.07,1.04,,,
2436,-0.8,3.57,-1.42,-0.05,0.03,0.95,,,
2437,0.74,1.15,-1.16,-0.11,0.06,1.01,,,
2438,1.83,2.07,-0.9,-0.13,0.04,1.03,,,
2439,0.69,4.72,-0.29,-0.12,0.06,1.07,,,
2440,0.95,4.5,-0.13,-0.12,0.08,1.02,,,
2441,0.14,0.51,-0.31,-0.12,0.11,1.05,,,
2442,1.05,0.93,0.01,-0.12,0.08,1.01,,,
2443,1.07,-0.1,0.42,-0.14,0.07,1.01,,,
2444,0.07,2.17,0.56,-0.16,0.08,1.05,,,
2445,0.33,2.18,0.45,-0.17,0.08,1.02,,,
2446,-0.35,1.71,-0.32,-0.15,0.08,1.01,,,
2447,-0.7,0.98,-0.23,-0.13,0.08,0.99,,,
2448,-1.29,0.48,-0.4,-0.13,0.09,1.05,,,
2449,0.01,-0.37,-0.33,-0.13,0.07,1,,,
2450,0.05,-1.78,-0.77,-0.14,0.07,1,,,
2451,-0.54,-2.11,-0.93,-0.14,0.08,1.05,,,
2452,0.24,-0.41,-1.45,-0.14,0.09,1.08,,,
2453,1.11,3.71,-1.51,-0.13,0.08,1.07,,,
2454,1.65,2.25,-1.81,-0.12,0.09,1.04,,,
2455,0.66,1.79,-1.89,-0.1,0.08,1.01,,,
2456,0.43,2.52,-1.41,-0.12,0.05,1,,,
2457,-0.38,0.31,0.06,-0.15,0.06,0.98,,,
2458,-4.24,-5.44,-0.67,-0.09,0.09,1,,,
2459,-1.22,-0.13,-0.4,-0.17,0.07,1.04,,,
2460,0.24,-0.66,-0.16,-0.18,0.06,1.06,,,
2461,0.3,-0.53,0.11,-0.15,0.08,1.08,,,
2462,-1.36,1.55,0.2,-0.11,0.06,1,,,
2463,-0.64,1.71,0.43,-0.1,0.07,0.98,,,
2464,-0.63,1.11,-0.18,-0.13,0.09,1,,,
2465,-0.99,-1.74,-0.22,-0.14,0.05,1.03,,,
2466,0.82,0.25,0.19,-0.17,0.05,1.05,,,
2467,0.46,0.45,0.34,-0.14,0.07,1.01,,,
2468,-0.88,0.4,-0.19,-0.14,0.1,1.05,,,
2469,-0.22,2.13,-0.74,-0.14,0.08,1.05,,,
2470,0.47,2.65,-0.41,-0.12,0.08,1.03,,,
2471,2.2,1.35,-0.07,-0.12,0.09,0.98,,,
2472,-0.19,-4.19,-0.89,-0.13,0.07,0.98,,,
2473,-0.18,-2.73,-0.47,-0.15,0.06,1.06,,,
2474,0.19,0.71,-0.03,-0.13,0.07,1.07,,,
2475,1.1,3.03,-0.66,-0.12,0.09,1.06,,,
2476,0.75,1.71,0,-0.1,0.07,1.01,,,
